subject,Block,Trial,array.RT,array.ACC,array.RESP,correct,loadLevel,trial_type
1301,6,1,824,1,0,0,0,comp
1301,6,2,424,1,0,0,0,inco
1301,6,3,499,1,2,2,0,neut
1301,6,4,427,1,2,2,0,neut
1301,6,5,327,0,2,0,0,comp
1301,6,6,475,1,2,2,0,neut
1301,6,7,766,1,2,2,0,comp
1301,6,8,486,1,0,0,0,neut
1301,6,9,687,0,2,0,0,neut
1301,6,10,820,0,2,0,0,inco
1301,6,11,738,1,0,0,0,neut
1301,6,12,639,1,2,2,0,neut
1301,6,13,725,1,2,2,0,inco
1301,6,14,499,1,2,2,0,inco
1301,6,15,619,1,0,0,0,inco
1301,6,16,452,1,2,2,0,inco
1301,6,17,638,1,0,0,0,neut
1301,6,18,613,1,2,2,0,inco
1301,6,19,859,1,0,0,0,comp
1301,6,20,489,1,2,2,0,neut
1301,6,21,927,0,2,0,0,neut
1301,6,22,0,0, ,0,0,neut
1301,6,23,493,1,2,2,0,neut
1301,6,24,465,1,2,2,0,neut
1301,6,25,544,1,2,2,0,inco
1301,6,26,673,1,2,2,0,inco
1301,6,27,501,1,2,2,0,inco
1301,6,28,578,1,0,0,0,comp
1301,6,29,565,1,2,2,0,inco
1301,6,30,445,1,2,2,0,neut
1301,6,31,353,1,2,2,0,comp
1301,6,32,358,1,2,2,0,comp
1301,6,33,338,0,2,0,0,inco
1301,6,34,421,1,0,0,0,inco
1301,6,35,495,1,2,2,0,neut
1301,6,36,357,1,2,2,0,inco
1301,6,37,717,1,0,0,0,inco
1301,6,38,620,0,2,0,0,comp
1301,6,39,558,1,0,0,0,inco
1301,6,40,365,1,0,0,0,comp
1301,6,41,444,1,0,0,0,comp
1301,6,42,408,1,0,0,0,comp
1301,6,43,513,1,2,2,0,neut
1301,6,44,938,1,0,0,0,inco
1301,6,45,569,1,0,0,0,neut
1301,6,46,652,1,2,2,0,comp
1301,6,47,309,0,2,0,0,comp
1301,6,48,637,1,2,2,0,comp
1301,6,49,796,1,2,2,0,comp
1301,6,50,477,1,2,2,0,neut
1301,6,51,460,1,2,2,0,inco
1301,6,52,564,1,0,0,0,neut
1301,6,53,617,0,2,0,0,comp
1301,6,54,1341,1,0,0,0,neut
1301,6,55,738,1,0,0,0,comp
1301,6,56,678,1,0,0,0,inco
1301,6,57,377,1,0,0,0,inco
1301,6,58,494,1,2,2,0,inco
1301,6,59,505,1,2,2,0,comp
1301,6,60,546,1,0,0,0,neut
1301,6,61,884,1,0,0,0,neut
1301,6,62,521,1,2,2,0,inco
1301,6,63,479,1,0,0,0,neut
1301,6,64,590,1,2,2,0,neut
1301,6,65,393,0,2,0,0,comp
1301,6,66,545,1,2,2,0,comp
1301,6,67,469,1,2,2,0,comp
1301,6,68,551,1,2,2,0,comp
1301,6,69,532,1,0,0,0,inco
1301,6,70,447,1,2,2,0,comp
1301,6,71,558,0,2,0,0,inco
1301,6,72,325,0,0,2,0,comp
1301,8,1,863,0,2,0,1,comp
1301,8,2,564,1,2,2,1,comp
1301,8,3,562,1,2,2,1,inco
1301,8,4,327,1,2,2,1,comp
1301,8,5,440,1,0,0,1,inco
1301,8,6,450,1,2,2,1,comp
1301,8,7,415,0,2,0,1,comp
1301,8,8,612,1,0,0,1,neut
1301,8,9,426,1,2,2,1,comp
1301,8,10,585,1,0,0,1,inco
1301,8,11,472,1,2,2,1,inco
1301,8,12,832,1,2,2,1,comp
1301,8,13,420,1,0,0,1,inco
1301,8,14,507,1,2,2,1,inco
1301,8,15,523,1,2,2,1,inco
1301,8,16,473,1,0,0,1,comp
1301,8,17,523,1,0,0,1,neut
1301,8,18,450,1,2,2,1,neut
1301,8,19,439,1,2,2,1,inco
1301,8,20,0,0, ,0,1,inco
1301,8,21,482,0,2,0,1,comp
1301,8,22,615,1,2,2,1,neut
1301,8,23,532,1,0,0,1,neut
1301,8,24,569,1,2,2,1,inco
1301,8,25,668,0,2,0,1,inco
1301,8,26,457,1,0,0,1,neut
1301,8,27,0,0, ,0,1,neut
1301,8,28,649,1,0,0,1,neut
1301,8,29,642,1,2,2,1,comp
1301,8,30,602,1,0,0,1,inco
1301,8,31,479,1,2,2,1,neut
1301,8,32,539,1,2,2,1,inco
1301,8,33,736,1,0,0,1,inco
1301,8,34,979,0,0,2,1,comp
1301,8,35,412,1,2,2,1,inco
1301,8,36,523,1,2,2,1,neut
1301,8,37,593,0,2,0,1,neut
1301,8,38,663,1,0,0,1,neut
1301,8,39,517,1,0,0,1,inco
1301,8,40,489,1,0,0,1,neut
1301,8,41,883,1,0,0,1,inco
1301,8,42,732,0,0,2,1,inco
1301,8,43,441,0,2,0,1,comp
1301,8,44,534,1,0,0,1,inco
1301,8,45,544,1,0,0,1,neut
1301,8,46,407,0,0,2,1,comp
1301,8,47,455,0,2,0,1,comp
1301,8,48,371,1,0,0,1,comp
1301,8,49,543,1,2,2,1,neut
1301,8,50,482,0,2,0,1,comp
1301,8,51,606,1,2,2,1,comp
1301,8,52,587,1,2,2,1,inco
1301,8,53,331,1,2,2,1,inco
1301,8,54,395,1,2,2,1,neut
1301,8,55,621,1,0,0,1,inco
1301,8,56,480,1,2,2,1,neut
1301,8,57,633,1,2,2,1,neut
1301,8,58,475,1,2,2,1,comp
1301,8,59,525,1,2,2,1,comp
1301,8,60,563,1,0,0,1,comp
1301,8,61,518,1,2,2,1,comp
1301,8,62,608,1,0,0,1,neut
1301,8,63,586,0,2,0,1,neut
1301,8,64,512,1,2,2,1,neut
1301,8,65,525,1,2,2,1,neut
1301,8,66,517,1,0,0,1,comp
1301,8,67,647,1,0,0,1,inco
1301,8,68,441,1,0,0,1,comp
1301,8,69,453,1,0,0,1,comp
1301,8,70,448,1,2,2,1,neut
1301,8,71,549,1,2,2,1,inco
1301,8,72,565,1,2,2,1,neut
1301,10,1,0,0, ,0,0,inco
1301,10,2,852,0,2,0,0,inco
1301,10,3,646,1,0,0,0,inco
1301,10,4,482,0,2,0,0,inco
1301,10,5,420,1,0,0,0,neut
1301,10,6,422,1,2,2,0,comp
1301,10,7,758,0,2,0,0,inco
1301,10,8,638,1,0,0,0,comp
1301,10,9,841,1,2,2,0,inco
1301,10,10,489,1,2,2,0,neut
1301,10,11,930,1,0,0,0,comp
1301,10,12,457,1,0,0,0,neut
1301,10,13,586,1,2,2,0,comp
1301,10,14,576,1,0,0,0,comp
1301,10,15,665,1,0,0,0,inco
1301,10,16,795,1,0,0,0,inco
1301,10,17,586,1,0,0,0,neut
1301,10,18,794,1,0,0,0,comp
1301,10,19,419,1,0,0,0,inco
1301,10,20,513,1,2,2,0,comp
1301,10,21,394,1,2,2,0,neut
1301,10,22,511,1,0,0,0,comp
1301,10,23,557,1,2,2,0,inco
1301,10,24,551,1,2,2,0,neut
1301,10,25,486,1,2,2,0,neut
1301,10,26,371,1,2,2,0,neut
1301,10,27,744,0,0,2,0,neut
1301,10,28,397,1,2,2,0,inco
1301,10,29,458,1,2,2,0,inco
1301,10,30,350,1,2,2,0,neut
1301,10,31,463,1,2,2,0,comp
1301,10,32,527,1,2,2,0,comp
1301,10,33,425,1,2,2,0,inco
1301,10,34,601,0,2,0,0,neut
1301,10,35,407,1,0,0,0,neut
1301,10,36,606,1,2,2,0,inco
1301,10,37,766,0,2,0,0,neut
1301,10,38,513,1,0,0,0,comp
1301,10,39,594,1,2,2,0,neut
1301,10,40,402,1,2,2,0,comp
1301,10,41,405,0,2,0,0,comp
1301,10,42,508,1,0,0,0,comp
1301,10,43,440,1,0,0,0,comp
1301,10,44,536,1,2,2,0,comp
1301,10,45,494,1,2,2,0,inco
1301,10,46,602,1,0,0,0,comp
1301,10,47,527,1,2,2,0,inco
1301,10,48,691,1,0,0,0,inco
1301,10,49,440,1,0,0,0,neut
1301,10,50,567,1,0,0,0,comp
1301,10,51,369,1,0,0,0,comp
1301,10,52,465,0,0,2,0,inco
1301,10,53,433,1,2,2,0,comp
1301,10,54,646,1,2,2,0,neut
1301,10,55,516,0,2,0,0,inco
1301,10,56,662,1,0,0,0,neut
1301,10,57,497,1,2,2,0,neut
1301,10,58,346,0,2,0,0,inco
1301,10,59,948,1,0,0,0,neut
1301,10,60,646,1,2,2,0,comp
1301,10,61,1142,1,2,2,0,inco
1301,10,62,511,1,2,2,0,neut
1301,10,63,550,1,2,2,0,inco
1301,10,64,395,1,2,2,0,comp
1301,10,65,430,1,2,2,0,neut
1301,10,66,669,1,0,0,0,neut
1301,10,67,638,1,0,0,0,inco
1301,10,68,464,1,2,2,0,inco
1301,10,69,608,1,0,0,0,neut
1301,10,70,876,1,0,0,0,neut
1301,10,71,453,1,2,2,0,comp
1301,10,72,897,0,0,2,0,comp
1301,12,1,0,0, ,0,1,neut
1301,12,2,0,0, ,2,1,neut
1301,12,3,312,1,2,2,1,comp
1301,12,4,558,1,0,0,1,comp
1301,12,5,536,1,0,0,1,comp
1301,12,6,664,1,0,0,1,neut
1301,12,7,506,1,2,2,1,comp
1301,12,8,603,1,0,0,1,inco
1301,12,9,634,1,0,0,1,inco
1301,12,10,770,1,2,2,1,inco
1301,12,11,669,1,2,2,1,neut
1301,12,12,0,0, ,0,1,comp
1301,12,13,482,1,2,2,1,inco
1301,12,14,599,1,0,0,1,neut
1301,12,15,506,1,2,2,1,neut
1301,12,16,578,1,2,2,1,inco
1301,12,17,535,1,2,2,1,neut
1301,12,18,387,0,2,0,1,comp
1301,12,19,483,1,2,2,1,inco
1301,12,20,448,1,2,2,1,neut
1301,12,21,496,1,2,2,1,inco
1301,12,22,435,1,2,2,1,comp
1301,12,23,0,0, ,0,1,comp
1301,12,24,406,0,2,0,1,neut
1301,12,25,0,0, ,0,1,inco
1301,12,26,495,1,2,2,1,neut
1301,12,27,380,1,2,2,1,neut
1301,12,28,545,1,0,0,1,inco
1301,12,29,387,1,2,2,1,neut
1301,12,30,514,1,2,2,1,neut
1301,12,31,518,0,2,0,1,inco
1301,12,32,458,1,2,2,1,neut
1301,12,33,505,1,2,2,1,comp
1301,12,34,695,1,0,0,1,inco
1301,12,35,358,1,2,2,1,comp
1301,12,36,694,1,0,0,1,comp
1301,12,37,634,1,0,0,1,comp
1301,12,38,440,0,2,0,1,inco
1301,12,39,539,1,0,0,1,neut
1301,12,40,408,1,0,0,1,neut
1301,12,41,582,1,2,2,1,neut
1301,12,42,734,1,0,0,1,neut
1301,12,43,577,1,2,2,1,inco
1301,12,44,497,1,0,0,1,inco
1301,12,45,462,1,2,2,1,inco
1301,12,46,441,1,2,2,1,comp
1301,12,47,351,1,2,2,1,comp
1301,12,48,314,1,2,2,1,comp
1301,12,49,319,1,2,2,1,inco
1301,12,50,585,1,2,2,1,neut
1301,12,51,505,1,0,0,1,neut
1301,12,52,557,1,0,0,1,comp
1301,12,53,398,1,0,0,1,comp
1301,12,54,379,1,0,0,1,comp
1301,12,55,475,1,0,0,1,comp
1301,12,56,488,1,0,0,1,neut
1301,12,57,594,1,2,2,1,comp
1301,12,58,548,1,0,0,1,neut
1301,12,59,515,1,2,2,1,inco
1301,12,60,598,1,0,0,1,inco
1301,12,61,575,1,2,2,1,inco
1301,12,62,587,1,0,0,1,inco
1301,12,63,501,1,2,2,1,inco
1301,12,64,469,1,2,2,1,comp
1301,12,65,526,1,2,2,1,inco
1301,12,66,398,0,2,0,1,inco
1301,12,67,541,1,0,0,1,comp
1301,12,68,674,1,2,2,1,comp
1301,12,69,319,1,2,2,1,comp
1301,12,70,367,0,2,0,1,neut
1301,12,71,479,1,0,0,1,inco
1301,12,72,351,1,0,0,1,neut
1301,14,1,902,1,0,0,0,comp
1301,14,2,402,1,2,2,0,comp
1301,14,3,629,0,2,0,0,neut
1301,14,4,491,1,0,0,0,comp
1301,14,5,479,1,2,2,0,comp
1301,14,6,369,1,2,2,0,inco
1301,14,7,315,0,2,0,0,comp
1301,14,8,599,1,2,2,0,comp
1301,14,9,339,1,0,0,0,inco
1301,14,10,433,0,0,2,0,inco
1301,14,11,1031,1,0,0,0,neut
1301,14,12,876,1,0,0,0,neut
1301,14,13,525,1,2,2,0,neut
1301,14,14,783,1,0,0,0,neut
1301,14,15,671,1,2,2,0,comp
1301,14,16,544,1,0,0,0,neut
1301,14,17,688,1,0,0,0,comp
1301,14,18,618,1,2,2,0,comp
1301,14,19,725,1,2,2,0,inco
1301,14,20,581,1,2,2,0,comp
1301,14,21,816,1,2,2,0,inco
1301,14,22,559,0,2,0,0,inco
1301,14,23,503,1,2,2,0,inco
1301,14,24,733,0,2,0,0,inco
1301,14,25,685,0,2,0,0,inco
1301,14,26,734,1,0,0,0,comp
1301,14,27,495,1,2,2,0,neut
1301,14,28,538,1,0,0,0,neut
1301,14,29,778,1,0,0,0,neut
1301,14,30,633,1,0,0,0,inco
1301,14,31,614,1,0,0,0,neut
1301,14,32,766,1,2,2,0,neut
1301,14,33,583,1,2,2,0,inco
1301,14,34,1007,1,0,0,0,inco
1301,14,35,565,1,2,2,0,inco
1301,14,36,899,1,0,0,0,comp
1301,14,37,482,1,2,2,0,comp
1301,14,38,649,1,0,0,0,neut
1301,14,39,593,1,0,0,0,comp
1301,14,40,591,1,0,0,0,inco
1301,14,41,773,1,0,0,0,comp
1301,14,42,560,1,2,2,0,comp
1301,14,43,0,0, ,2,0,inco
1301,14,44,468,1,2,2,0,comp
1301,14,45,544,1,2,2,0,comp
1301,14,46,662,1,2,2,0,inco
1301,14,47,422,1,2,2,0,neut
1301,14,48,394,1,2,2,0,neut
1301,14,49,548,1,2,2,0,neut
1301,14,50,555,0,2,0,0,neut
1301,14,51,499,1,2,2,0,neut
1301,14,52,636,1,0,0,0,inco
1301,14,53,492,1,2,2,0,comp
1301,14,54,729,0,2,0,0,inco
1301,14,55,523,1,2,2,0,neut
1301,14,56,514,1,0,0,0,inco
1301,14,57,0,0, ,0,0,comp
1301,14,58,538,1,0,0,0,comp
1301,14,59,564,1,2,2,0,inco
1301,14,60,812,1,2,2,0,inco
1301,14,61,0,0, ,0,0,neut
1301,14,62,607,0,2,0,0,inco
1301,14,63,672,1,2,2,0,inco
1301,14,64,491,1,2,2,0,neut
1301,14,65,660,1,0,0,0,comp
1301,14,66,366,1,2,2,0,neut
1301,14,67,446,1,2,2,0,comp
1301,14,68,331,1,2,2,0,neut
1301,14,69,321,0,2,0,0,comp
1301,14,70,467,1,2,2,0,neut
1301,14,71,542,1,0,0,0,neut
1301,14,72,609,1,0,0,0,inco
1301,16,1,601,1,2,2,1,comp
1301,16,2,461,1,2,2,1,neut
1301,16,3,325,1,2,2,1,neut
1301,16,4,323,1,2,2,1,comp
1301,16,5,443,1,0,0,1,comp
1301,16,6,473,1,0,0,1,neut
1301,16,7,740,1,0,0,1,inco
1301,16,8,877,0,2,0,1,neut
1301,16,9,484,1,2,2,1,neut
1301,16,10,556,1,0,0,1,comp
1301,16,11,443,1,0,0,1,inco
1301,16,12,504,1,2,2,1,neut
1301,16,13,659,1,2,2,1,comp
1301,16,14,572,1,2,2,1,inco
1301,16,15,600,1,0,0,1,comp
1301,16,16,703,1,2,2,1,neut
1301,16,17,605,1,2,2,1,inco
1301,16,18,569,1,0,0,1,comp
1301,16,19,744,1,2,2,1,inco
1301,16,20,448,1,2,2,1,comp
1301,16,21,714,1,0,0,1,comp
1301,16,22,744,1,0,0,1,comp
1301,16,23,511,1,0,0,1,neut
1301,16,24,733,0,2,0,1,inco
1301,16,25,532,1,2,2,1,neut
1301,16,26,565,1,2,2,1,comp
1301,16,27,584,1,2,2,1,inco
1301,16,28,472,1,0,0,1,neut
1301,16,29,1247,1,2,2,1,comp
1301,16,30,1426,1,0,0,1,inco
1301,16,31,632,1,0,0,1,inco
1301,16,32,532,1,0,0,1,inco
1301,16,33,652,1,0,0,1,neut
1301,16,34,579,1,0,0,1,inco
1301,16,35,581,1,2,2,1,inco
1301,16,36,471,1,0,0,1,comp
1301,16,37,471,1,0,0,1,neut
1301,16,38,554,1,0,0,1,neut
1301,16,39,560,1,2,2,1,comp
1301,16,40,642,1,0,0,1,inco
1301,16,41,659,1,0,0,1,neut
1301,16,42,346,1,0,0,1,inco
1301,16,43,553,1,2,2,1,neut
1301,16,44,426,1,0,0,1,comp
1301,16,45,1029,1,2,2,1,comp
1301,16,46,600,1,2,2,1,comp
1301,16,47,415,0,0,2,1,neut
1301,16,48,520,1,2,2,1,neut
1301,16,49,535,1,2,2,1,neut
1301,16,50,562,1,2,2,1,inco
1301,16,51,431,1,2,2,1,comp
1301,16,52,465,0,2,0,1,inco
1301,16,53,508,1,0,0,1,comp
1301,16,54,571,1,2,2,1,comp
1301,16,55,0,0, ,2,1,comp
1301,16,56,0,0, ,0,1,comp
1301,16,57,571,1,0,0,1,comp
1301,16,58,600,1,2,2,1,neut
1301,16,59,669,1,2,2,1,inco
1301,16,60,610,1,0,0,1,neut
1301,16,61,770,0,2,0,1,comp
1301,16,62,663,0,0,2,1,inco
1301,16,63,500,1,2,2,1,inco
1301,16,64,422,0,2,0,1,neut
1301,16,65,366,0,2,0,1,inco
1301,16,66,651,1,2,2,1,inco
1301,16,67,443,1,2,2,1,neut
1301,16,68,638,1,0,0,1,inco
1301,16,69,590,0,2,0,1,neut
1301,16,70,588,1,0,0,1,neut
1301,16,71,533,1,2,2,1,inco
1301,16,72,501,1,2,2,1,inco
1301,18,1,1201,1,2,2,0,comp
1301,18,2,518,1,2,2,0,inco
1301,18,3,330,0,2,0,0,neut
1301,18,4,489,1,0,0,0,comp
1301,18,5,400,1,2,2,0,comp
1301,18,6,661,1,0,0,0,neut
1301,18,7,663,1,0,0,0,neut
1301,18,8,875,1,0,0,0,inco
1301,18,9,492,1,0,0,0,comp
1301,18,10,281,1,2,2,0,comp
1301,18,11,383,1,2,2,0,comp
1301,18,12,371,0,0,2,0,neut
1301,18,13,569,1,0,0,0,inco
1301,18,14,382,1,0,0,0,neut
1301,18,15,511,1,2,2,0,comp
1301,18,16,370,0,2,0,0,neut
1301,18,17,460,1,2,2,0,neut
1301,18,18,490,1,2,2,0,inco
1301,18,19,528,1,0,0,0,comp
1301,18,20,528,1,0,0,0,inco
1301,18,21,903,0,2,0,0,inco
1301,18,22,619,1,2,2,0,inco
1301,18,23,0,0, ,0,0,neut
1301,18,24,0,0, ,2,0,comp
1301,18,25,470,1,0,0,0,comp
1301,18,26,576,1,2,2,0,neut
1301,18,27,714,1,0,0,0,comp
1301,18,28,615,1,2,2,0,inco
1301,18,29,730,1,2,2,0,inco
1301,18,30,550,1,2,2,0,comp
1301,18,31,573,0,2,0,0,inco
1301,18,32,502,1,2,2,0,neut
1301,18,33,1356,0,2,0,0,inco
1301,18,34,442,1,2,2,0,comp
1301,18,35,385,1,2,2,0,inco
1301,18,36,0,0, ,2,0,neut
1301,18,37,399,1,2,2,0,inco
1301,18,38,1217,1,0,0,0,comp
1301,18,39,1427,1,2,2,0,neut
1301,18,40,429,1,2,2,0,inco
1301,18,41,546,0,2,0,0,neut
1301,18,42,713,1,2,2,0,inco
1301,18,43,358,1,2,2,0,neut
1301,18,44,479,1,2,2,0,neut
1301,18,45,544,0,2,0,0,inco
1301,18,46,460,1,2,2,0,neut
1301,18,47,473,1,0,0,0,inco
1301,18,48,533,1,2,2,0,inco
1301,18,49,634,1,2,2,0,inco
1301,18,50,480,1,2,2,0,comp
1301,18,51,538,1,0,0,0,neut
1301,18,52,584,1,0,0,0,neut
1301,18,53,353,1,0,0,0,inco
1301,18,54,533,1,2,2,0,comp
1301,18,55,397,0,2,0,0,inco
1301,18,56,729,1,0,0,0,neut
1301,18,57,399,1,0,0,0,comp
1301,18,58,591,1,0,0,0,comp
1301,18,59,614,0,0,2,0,neut
1301,18,60,0,0, ,0,0,comp
1301,18,61,661,1,0,0,0,inco
1301,18,62,493,1,0,0,0,comp
1301,18,63,445,1,2,2,0,neut
1301,18,64,914,1,0,0,0,inco
1301,18,65,628,1,0,0,0,comp
1301,18,66,573,1,2,2,0,inco
1301,18,67,569,0,0,2,0,neut
1301,18,68,549,1,2,2,0,comp
1301,18,69,523,1,0,0,0,comp
1301,18,70,531,1,2,2,0,comp
1301,18,71,487,1,0,0,0,neut
1301,18,72,590,1,0,0,0,neut
1301,20,1,600,1,2,2,1,neut
1301,20,2,446,1,2,2,1,comp
1301,20,3,422,1,2,2,1,neut
1301,20,4,395,1,2,2,1,neut
1301,20,5,399,1,2,2,1,inco
1301,20,6,532,1,0,0,1,neut
1301,20,7,305,1,0,0,1,neut
1301,20,8,471,1,2,2,1,neut
1301,20,9,336,1,2,2,1,comp
1301,20,10,372,1,2,2,1,neut
1301,20,11,504,1,0,0,1,comp
1301,20,12,325,1,0,0,1,inco
1301,20,13,387,1,0,0,1,neut
1301,20,14,493,1,0,0,1,comp
1301,20,15,351,1,0,0,1,inco
1301,20,16,514,1,2,2,1,inco
1301,20,17,569,0,2,0,1,neut
1301,20,18,475,1,2,2,1,neut
1301,20,19,531,1,2,2,1,neut
1301,20,20,492,1,0,0,1,neut
1301,20,21,508,1,2,2,1,comp
1301,20,22,384,0,2,0,1,inco
1301,20,23,601,1,2,2,1,comp
1301,20,24,415,0,0,2,1,inco
1301,20,25,523,1,0,0,1,inco
1301,20,26,453,1,2,2,1,neut
1301,20,27,476,1,2,2,1,inco
1301,20,28,547,1,2,2,1,neut
1301,20,29,492,1,2,2,1,inco
1301,20,30,428,1,2,2,1,neut
1301,20,31,469,0,2,0,1,inco
1301,20,32,1414,1,0,0,1,comp
1301,20,33,1254,1,2,2,1,inco
1301,20,34,414,1,2,2,1,comp
1301,20,35,425,1,2,2,1,comp
1301,20,36,525,1,2,2,1,comp
1301,20,37,738,1,0,0,1,neut
1301,20,38,409,1,2,2,1,neut
1301,20,39,436,1,2,2,1,inco
1301,20,40,603,1,0,0,1,inco
1301,20,41,533,1,0,0,1,comp
1301,20,42,436,1,0,0,1,comp
1301,20,43,509,1,0,0,1,neut
1301,20,44,555,1,2,2,1,comp
1301,20,45,0,0, ,0,1,inco
1301,20,46,0,0, ,2,1,inco
1301,20,47,497,1,0,0,1,comp
1301,20,48,614,0,2,0,1,inco
1301,20,49,468,1,0,0,1,comp
1301,20,50,537,1,2,2,1,comp
1301,20,51,452,1,0,0,1,comp
1301,20,52,691,1,0,0,1,inco
1301,20,53,375,1,0,0,1,neut
1301,20,54,515,1,2,2,1,inco
1301,20,55,523,1,0,0,1,comp
1301,20,56,612,0,2,0,1,inco
1301,20,57,432,0,0,2,1,inco
1301,20,58,558,1,0,0,1,inco
1301,20,59,715,1,0,0,1,comp
1301,20,60,404,1,0,0,1,neut
1301,20,61,623,1,0,0,1,neut
1301,20,62,339,1,2,2,1,comp
1301,20,63,487,1,0,0,1,inco
1301,20,64,649,1,2,2,1,comp
1301,20,65,544,1,0,0,1,neut
1301,20,66,484,1,2,2,1,neut
1301,20,67,619,1,2,2,1,comp
1301,20,68,511,1,0,0,1,neut
1301,20,69,378,1,2,2,1,inco
1301,20,70,414,1,0,0,1,comp
1301,20,71,438,1,0,0,1,comp
1301,20,72,613,1,2,2,1,inco
1301,22,1,976,1,0,0,0,neut
1301,22,2,531,1,2,2,0,neut
1301,22,3,533,1,0,0,0,neut
1301,22,4,437,1,2,2,0,comp
1301,22,5,469,1,0,0,0,comp
1301,22,6,344,1,0,0,0,neut
1301,22,7,313,1,0,0,0,comp
1301,22,8,473,1,0,0,0,comp
1301,22,9,373,1,0,0,0,comp
1301,22,10,577,1,2,2,0,inco
1301,22,11,385,1,2,2,0,inco
1301,22,12,458,1,2,2,0,neut
1301,22,13,348,1,2,2,0,comp
1301,22,14,335,1,2,2,0,neut
1301,22,15,492,1,0,0,0,comp
1301,22,16,506,1,2,2,0,comp
1301,22,17,756,0,2,0,0,inco
1301,22,18,486,1,2,2,0,inco
1301,22,19,484,1,2,2,0,inco
1301,22,20,479,1,2,2,0,inco
1301,22,21,496,1,0,0,0,inco
1301,22,22,476,1,2,2,0,neut
1301,22,23,442,0,2,0,0,comp
1301,22,24,338,1,0,0,0,comp
1301,22,25,891,1,2,2,0,neut
1301,22,26,379,1,0,0,0,neut
1301,22,27,598,1,2,2,0,neut
1301,22,28,644,1,0,0,0,neut
1301,22,29,518,1,0,0,0,inco
1301,22,30,443,1,2,2,0,neut
1301,22,31,612,1,0,0,0,inco
1301,22,32,433,1,2,2,0,inco
1301,22,33,552,1,0,0,0,inco
1301,22,34,375,1,0,0,0,comp
1301,22,35,291,0,2,0,0,inco
1301,22,36,629,1,0,0,0,inco
1301,22,37,372,1,0,0,0,neut
1301,22,38,412,1,0,0,0,comp
1301,22,39,416,1,2,2,0,comp
1301,22,40,353,1,2,2,0,comp
1301,22,41,477,1,0,0,0,neut
1301,22,42,500,1,0,0,0,inco
1301,22,43,371,1,0,0,0,neut
1301,22,44,729,0,0,2,0,comp
1301,22,45,572,1,2,2,0,neut
1301,22,46,453,1,2,2,0,comp
1301,22,47,567,1,2,2,0,comp
1301,22,48,404,1,2,2,0,neut
1301,22,49,521,1,2,2,0,inco
1301,22,50,0,0, ,0,0,comp
1301,22,51,452,1,2,2,0,neut
1301,22,52,387,1,2,2,0,inco
1301,22,53,803,1,0,0,0,neut
1301,22,54,896,1,0,0,0,comp
1301,22,55,435,1,2,2,0,comp
1301,22,56,324,1,2,2,0,comp
1301,22,57,742,0,0,2,0,inco
1301,22,58,411,1,2,2,0,inco
1301,22,59,536,1,2,2,0,inco
1301,22,60,348,1,2,2,0,comp
1301,22,61,475,1,2,2,0,neut
1301,22,62,419,0,2,0,0,inco
1301,22,63,495,1,0,0,0,neut
1301,22,64,1011,1,2,2,0,inco
1301,22,65,673,1,0,0,0,neut
1301,22,66,765,1,0,0,0,inco
1301,22,67,434,1,0,0,0,comp
1301,22,68,427,1,0,0,0,inco
1301,22,69,475,1,0,0,0,neut
1301,22,70,724,1,0,0,0,inco
1301,22,71,469,1,2,2,0,comp
1301,22,72,462,1,2,2,0,neut
1301,24,1,0,0, ,0,1,comp
1301,24,2,657,0,0,2,1,comp
1301,24,3,572,1,0,0,1,comp
1301,24,4,349,0,0,2,1,inco
1301,24,5,365,1,2,2,1,neut
1301,24,6,540,1,2,2,1,inco
1301,24,7,350,1,2,2,1,neut
1301,24,8,528,1,0,0,1,neut
1301,24,9,569,1,0,0,1,inco
1301,24,10,541,1,2,2,1,comp
1301,24,11,484,1,2,2,1,neut
1301,24,12,497,0,2,0,1,comp
1301,24,13,525,1,2,2,1,inco
1301,24,14,552,1,0,0,1,neut
1301,24,15,596,1,0,0,1,inco
1301,24,16,462,1,2,2,1,inco
1301,24,17,526,1,0,0,1,inco
1301,24,18,496,1,0,0,1,neut
1301,24,19,555,1,0,0,1,neut
1301,24,20,828,1,2,2,1,comp
1301,24,21,561,1,0,0,1,inco
1301,24,22,537,0,0,2,1,inco
1301,24,23,530,1,2,2,1,inco
1301,24,24,559,1,2,2,1,neut
1301,24,25,442,1,2,2,1,neut
1301,24,26,473,1,2,2,1,comp
1301,24,27,473,1,2,2,1,inco
1301,24,28,502,1,2,2,1,neut
1301,24,29,497,1,2,2,1,neut
1301,24,30,412,0,2,0,1,neut
1301,24,31,390,1,0,0,1,comp
1301,24,32,593,1,2,2,1,neut
1301,24,33,536,1,0,0,1,neut
1301,24,34,724,1,0,0,1,inco
1301,24,35,463,1,2,2,1,neut
1301,24,36,467,1,0,0,1,comp
1301,24,37,503,1,2,2,1,neut
1301,24,38,516,1,0,0,1,comp
1301,24,39,591,1,0,0,1,inco
1301,24,40,693,1,0,0,1,comp
1301,24,41,484,1,0,0,1,inco
1301,24,42,432,1,0,0,1,inco
1301,24,43,497,1,2,2,1,comp
1301,24,44,537,1,0,0,1,inco
1301,24,45,467,1,2,2,1,comp
1301,24,46,565,1,2,2,1,inco
1301,24,47,568,1,0,0,1,inco
1301,24,48,480,1,2,2,1,inco
1301,24,49,431,1,0,0,1,inco
1301,24,50,422,1,2,2,1,neut
1301,24,51,463,1,0,0,1,comp
1301,24,52,566,1,0,0,1,neut
1301,24,53,494,1,0,0,1,neut
1301,24,54,530,1,2,2,1,comp
1301,24,55,579,1,2,2,1,comp
1301,24,56,533,0,2,0,1,inco
1301,24,57,514,1,2,2,1,inco
1301,24,58,939,1,0,0,1,neut
1301,24,59,663,1,2,2,1,comp
1301,24,60,648,1,2,2,1,comp
1301,24,61,495,1,0,0,1,comp
1301,24,62,781,1,2,2,1,inco
1301,24,63,794,1,0,0,1,neut
1301,24,64,554,1,2,2,1,comp
1301,24,65,516,1,0,0,1,neut
1301,24,66,663,1,0,0,1,comp
1301,24,67,515,1,0,0,1,comp
1301,24,68,548,1,2,2,1,inco
1301,24,69,785,1,2,2,1,neut
1301,24,70,592,1,0,0,1,neut
1301,24,71,480,1,0,0,1,comp
1301,24,72,454,1,2,2,1,comp
1301,26,1,970,0,0,2,0,comp
1301,26,2,395,1,2,2,0,inco
1301,26,3,628,1,0,0,0,inco
1301,26,4,585,1,2,2,0,comp
1301,26,5,627,1,2,2,0,inco
1301,26,6,539,0,2,0,0,inco
1301,26,7,490,1,0,0,0,neut
1301,26,8,410,0,0,2,0,inco
1301,26,9,414,1,2,2,0,neut
1301,26,10,477,1,0,0,0,neut
1301,26,11,682,1,0,0,0,neut
1301,26,12,552,1,0,0,0,inco
1301,26,13,560,1,0,0,0,inco
1301,26,14,767,1,0,0,0,comp
1301,26,15,675,1,2,2,0,inco
1301,26,16,669,1,2,2,0,neut
1301,26,17,606,1,0,0,0,neut
1301,26,18,639,1,0,0,0,comp
1301,26,19,553,1,0,0,0,comp
1301,26,20,541,1,0,0,0,comp
1301,26,21,627,1,2,2,0,neut
1301,26,22,761,1,2,2,0,inco
1301,26,23,627,1,0,0,0,comp
1301,26,24,600,1,0,0,0,neut
1301,26,25,0,0, ,0,0,comp
1301,26,26,1059,0,0,2,0,comp
1301,26,27,0,0, ,2,0,inco
1301,26,28,584,1,2,2,0,comp
1301,26,29,366,1,2,2,0,comp
1301,26,30,386,1,2,2,0,comp
1301,26,31,731,1,0,0,0,comp
1301,26,32,812,0,2,0,0,neut
1301,26,33,412,1,0,0,0,neut
1301,26,34,501,0,0,2,0,comp
1301,26,35,462,1,2,2,0,inco
1301,26,36,1033,1,0,0,0,inco
1301,26,37,0,0, ,0,0,inco
1301,26,38,590,1,2,2,0,neut
1301,26,39,848,1,2,2,0,neut
1301,26,40,527,1,2,2,0,comp
1301,26,41,0,0, ,0,0,inco
1301,26,42,419,1,2,2,0,neut
1301,26,43,400,1,2,2,0,neut
1301,26,44,401,0,2,0,0,neut
1301,26,45,571,1,2,2,0,inco
1301,26,46,0,0, ,2,0,neut
1301,26,47,377,1,2,2,0,neut
1301,26,48,399,1,2,2,0,inco
1301,26,49,458,1,2,2,0,neut
1301,26,50,471,1,2,2,0,inco
1301,26,51,438,1,0,0,0,comp
1301,26,52,343,1,2,2,0,neut
1301,26,53,628,1,0,0,0,neut
1301,26,54,472,1,0,0,0,inco
1301,26,55,584,1,0,0,0,comp
1301,26,56,558,1,2,2,0,inco
1301,26,57,580,1,2,2,0,inco
1301,26,58,579,0,0,2,0,comp
1301,26,59,595,1,2,2,0,comp
1301,26,60,767,1,0,0,0,inco
1301,26,61,772,1,0,0,0,comp
1301,26,62,523,1,2,2,0,comp
1301,26,63,685,1,0,0,0,neut
1301,26,64,541,1,2,2,0,comp
1301,26,65,554,1,0,0,0,comp
1301,26,66,724,1,0,0,0,inco
1301,26,67,427,0,2,0,0,neut
1301,26,68,384,1,0,0,0,neut
1301,26,69,506,0,2,0,0,inco
1301,26,70,467,1,0,0,0,inco
1301,26,71,550,1,0,0,0,comp
1301,26,72,479,1,2,2,0,neut
1301,28,1,799,0,0,2,1,inco
1301,28,2,413,1,2,2,1,inco
1301,28,3,348,1,2,2,1,inco
1301,28,4,368,0,2,0,1,comp
1301,28,5,508,0,2,0,1,neut
1301,28,6,394,0,0,2,1,neut
1301,28,7,374,1,2,2,1,comp
1301,28,8,348,1,2,2,1,comp
1301,28,9,613,1,2,2,1,neut
1301,28,10,1039,1,2,2,1,neut
1301,28,11,741,1,2,2,1,inco
1301,28,12,697,1,0,0,1,comp
1301,28,13,435,1,2,2,1,comp
1301,28,14,566,1,0,0,1,inco
1301,28,15,514,1,2,2,1,neut
1301,28,16,484,1,0,0,1,neut
1301,28,17,640,1,0,0,1,inco
1301,28,18,562,1,0,0,1,inco
1301,28,19,513,1,0,0,1,inco
1301,28,20,886,1,0,0,1,inco
1301,28,21,799,1,2,2,1,comp
1301,28,22,681,0,2,0,1,comp
1301,28,23,957,1,2,2,1,inco
1301,28,24,1260,1,2,2,1,comp
1301,28,25,513,1,0,0,1,comp
1301,28,26,549,1,2,2,1,inco
1301,28,27,538,1,2,2,1,comp
1301,28,28,550,1,0,0,1,neut
1301,28,29,636,1,0,0,1,inco
1301,28,30,568,1,2,2,1,comp
1301,28,31,470,1,2,2,1,neut
1301,28,32,426,1,2,2,1,comp
1301,28,33,449,1,2,2,1,comp
1301,28,34,489,1,0,0,1,comp
1301,28,35,491,1,2,2,1,inco
1301,28,36,511,1,0,0,1,inco
1301,28,37,513,1,2,2,1,comp
1301,28,38,546,1,2,2,1,inco
1301,28,39,376,1,2,2,1,neut
1301,28,40,577,1,0,0,1,comp
1301,28,41,530,1,2,2,1,inco
1301,28,42,507,1,0,0,1,comp
1301,28,43,618,1,0,0,1,neut
1301,28,44,1367,1,0,0,1,comp
1301,28,45,656,1,0,0,1,comp
1301,28,46,567,1,0,0,1,neut
1301,28,47,318,1,0,0,1,inco
1301,28,48,391,1,0,0,1,comp
1301,28,49,632,1,0,0,1,inco
1301,28,50,476,1,2,2,1,inco
1301,28,51,484,1,0,0,1,neut
1301,28,52,576,1,0,0,1,neut
1301,28,53,374,0,0,2,1,comp
1301,28,54,400,1,2,2,1,neut
1301,28,55,480,1,0,0,1,neut
1301,28,56,0,0, ,0,1,inco
1301,28,57,509,1,0,0,1,inco
1301,28,58,644,1,2,2,1,neut
1301,28,59,501,1,2,2,1,inco
1301,28,60,346,1,2,2,1,neut
1301,28,61,529,1,0,0,1,comp
1301,28,62,443,1,0,0,1,neut
1301,28,63,580,1,0,0,1,neut
1301,28,64,530,1,0,0,1,inco
1301,28,65,663,1,0,0,1,comp
1301,28,66,484,1,2,2,1,neut
1301,28,67,596,1,0,0,1,neut
1301,28,68,437,1,0,0,1,neut
1301,28,69,559,1,2,2,1,comp
1301,28,70,624,1,2,2,1,inco
1301,28,71,561,1,2,2,1,neut
1301,28,72,405,1,2,2,1,neut
1303,6,1,499,1,2,2,0,neut
1303,6,2,422,1,0,0,0,neut
1303,6,3,420,1,0,0,0,neut
1303,6,4,432,1,2,2,0,inco
1303,6,5,1361,1,2,2,0,inco
1303,6,6,454,0,2,0,0,inco
1303,6,7,698,1,2,2,0,neut
1303,6,8,637,1,0,0,0,neut
1303,6,9,527,1,2,2,0,inco
1303,6,10,387,1,0,0,0,neut
1303,6,11,470,1,2,2,0,comp
1303,6,12,545,1,2,2,0,comp
1303,6,13,624,0,2,0,0,inco
1303,6,14,646,1,2,2,0,comp
1303,6,15,439,1,2,2,0,comp
1303,6,16,1259,1,2,2,0,inco
1303,6,17,719,0,2,0,0,inco
1303,6,18,797,1,2,2,0,comp
1303,6,19,568,1,2,2,0,comp
1303,6,20,549,1,0,0,0,neut
1303,6,21,450,1,2,2,0,neut
1303,6,22,316,1,0,0,0,neut
1303,6,23,471,1,2,2,0,neut
1303,6,24,961,1,2,2,0,inco
1303,6,25,671,1,0,0,0,comp
1303,6,26,779,1,0,0,0,inco
1303,6,27,471,1,2,2,0,neut
1303,6,28,610,1,0,0,0,comp
1303,6,29,452,1,0,0,0,comp
1303,6,30,480,1,0,0,0,comp
1303,6,31,429,1,0,0,0,comp
1303,6,32,882,0,0,2,0,inco
1303,6,33,442,0,2,0,0,inco
1303,6,34,617,1,0,0,0,comp
1303,6,35,1003,1,2,2,0,neut
1303,6,36,730,1,2,2,0,neut
1303,6,37,520,1,2,2,0,comp
1303,6,38,506,1,0,0,0,comp
1303,6,39,441,1,0,0,0,comp
1303,6,40,682,1,0,0,0,inco
1303,6,41,746,1,0,0,0,neut
1303,6,42,458,1,0,0,0,neut
1303,6,43,352,1,0,0,0,inco
1303,6,44,1270,1,2,2,0,inco
1303,6,45,697,1,0,0,0,inco
1303,6,46,686,1,0,0,0,neut
1303,6,47,568,1,2,2,0,neut
1303,6,48,617,1,2,2,0,comp
1303,6,49,825,1,0,0,0,inco
1303,6,50,1031,0,0,2,0,comp
1303,6,51,560,1,2,2,0,neut
1303,6,52,775,1,2,2,0,neut
1303,6,53,837,1,2,2,0,comp
1303,6,54,1309,1,2,2,0,inco
1303,6,55,759,1,0,0,0,neut
1303,6,56,696,1,0,0,0,comp
1303,6,57,908,0,2,0,0,inco
1303,6,58,550,1,0,0,0,comp
1303,6,59,631,1,0,0,0,comp
1303,6,60,466,1,2,2,0,comp
1303,6,61,436,1,0,0,0,neut
1303,6,62,449,1,2,2,0,comp
1303,6,63,588,1,0,0,0,neut
1303,6,64,529,1,2,2,0,inco
1303,6,65,560,1,2,2,0,neut
1303,6,66,437,1,0,0,0,comp
1303,6,67,986,0,2,0,0,inco
1303,6,68,1355,1,2,2,0,inco
1303,6,69,576,1,2,2,0,inco
1303,6,70,1271,1,2,2,0,inco
1303,6,71,529,1,2,2,0,neut
1303,6,72,677,1,0,0,0,inco
1303,8,1,550,1,2,2,1,inco
1303,8,2,369,0,2,0,1,inco
1303,8,3,666,1,0,0,1,comp
1303,8,4,686,1,0,0,1,neut
1303,8,5,330,1,2,2,1,comp
1303,8,6,679,1,2,2,1,neut
1303,8,7,374,1,0,0,1,comp
1303,8,8,434,1,2,2,1,comp
1303,8,9,362,1,0,0,1,inco
1303,8,10,517,1,2,2,1,inco
1303,8,11,508,1,0,0,1,comp
1303,8,12,483,0,2,0,1,neut
1303,8,13,692,0,2,0,1,comp
1303,8,14,783,1,2,2,1,inco
1303,8,15,595,1,0,0,1,comp
1303,8,16,940,1,0,0,1,neut
1303,8,17,890,1,0,0,1,inco
1303,8,18,419,1,0,0,1,neut
1303,8,19,587,1,2,2,1,neut
1303,8,20,954,1,2,2,1,comp
1303,8,21,942,1,0,0,1,inco
1303,8,22,669,1,0,0,1,comp
1303,8,23,515,1,0,0,1,inco
1303,8,24,524,1,0,0,1,comp
1303,8,25,608,1,2,2,1,neut
1303,8,26,631,1,2,2,1,neut
1303,8,27,512,1,2,2,1,inco
1303,8,28,652,1,0,0,1,inco
1303,8,29,631,1,2,2,1,neut
1303,8,30,610,1,0,0,1,neut
1303,8,31,768,1,0,0,1,inco
1303,8,32,467,0,2,0,1,comp
1303,8,33,453,1,2,2,1,inco
1303,8,34,765,1,2,2,1,neut
1303,8,35,484,1,2,2,1,comp
1303,8,36,597,1,2,2,1,inco
1303,8,37,656,1,2,2,1,inco
1303,8,38,482,1,2,2,1,comp
1303,8,39,459,1,2,2,1,inco
1303,8,40,725,1,0,0,1,neut
1303,8,41,718,0,0,2,1,inco
1303,8,42,603,1,2,2,1,comp
1303,8,43,600,1,0,0,1,neut
1303,8,44,561,0,0,2,1,neut
1303,8,45,1420,1,0,0,1,neut
1303,8,46,560,1,2,2,1,neut
1303,8,47,780,1,2,2,1,comp
1303,8,48,581,1,0,0,1,neut
1303,8,49,562,1,0,0,1,inco
1303,8,50,525,1,2,2,1,comp
1303,8,51,543,1,2,2,1,comp
1303,8,52,568,1,2,2,1,neut
1303,8,53,528,1,0,0,1,inco
1303,8,54,692,1,2,2,1,inco
1303,8,55,521,1,0,0,1,comp
1303,8,56,970,1,2,2,1,comp
1303,8,57,553,1,2,2,1,neut
1303,8,58,490,1,0,0,1,inco
1303,8,59,1036,1,2,2,1,neut
1303,8,60,520,1,2,2,1,inco
1303,8,61,592,1,2,2,1,comp
1303,8,62,660,1,0,0,1,inco
1303,8,63,546,1,2,2,1,comp
1303,8,64,550,1,0,0,1,inco
1303,8,65,576,1,0,0,1,neut
1303,8,66,609,1,0,0,1,comp
1303,8,67,553,1,0,0,1,neut
1303,8,68,552,1,0,0,1,comp
1303,8,69,652,1,2,2,1,inco
1303,8,70,793,1,2,2,1,neut
1303,8,71,540,1,0,0,1,neut
1303,8,72,535,1,0,0,1,comp
1303,10,1,756,1,2,2,0,inco
1303,10,2,441,1,2,2,0,comp
1303,10,3,439,1,2,2,0,comp
1303,10,4,331,1,0,0,0,comp
1303,10,5,649,0,2,0,0,inco
1303,10,6,645,1,2,2,0,inco
1303,10,7,456,1,2,2,0,inco
1303,10,8,520,0,0,2,0,inco
1303,10,9,1051,1,0,0,0,neut
1303,10,10,0,0, ,2,0,inco
1303,10,11,819,1,0,0,0,comp
1303,10,12,859,1,2,2,0,neut
1303,10,13,1240,1,2,2,0,inco
1303,10,14,573,1,0,0,0,comp
1303,10,15,728,1,0,0,0,neut
1303,10,16,685,1,2,2,0,comp
1303,10,17,810,1,2,2,0,comp
1303,10,18,769,1,0,0,0,inco
1303,10,19,611,1,0,0,0,neut
1303,10,20,756,1,2,2,0,neut
1303,10,21,596,1,2,2,0,neut
1303,10,22,519,1,0,0,0,neut
1303,10,23,544,0,2,0,0,inco
1303,10,24,508,1,0,0,0,neut
1303,10,25,808,1,0,0,0,inco
1303,10,26,535,1,2,2,0,comp
1303,10,27,704,1,2,2,0,neut
1303,10,28,479,1,0,0,0,comp
1303,10,29,1132,1,0,0,0,inco
1303,10,30,742,1,2,2,0,comp
1303,10,31,629,1,2,2,0,comp
1303,10,32,485,1,2,2,0,neut
1303,10,33,535,1,0,0,0,comp
1303,10,34,574,0,2,0,0,inco
1303,10,35,596,1,2,2,0,comp
1303,10,36,454,1,2,2,0,comp
1303,10,37,774,1,2,2,0,neut
1303,10,38,466,1,2,2,0,inco
1303,10,39,538,1,0,0,0,comp
1303,10,40,663,1,2,2,0,neut
1303,10,41,625,1,2,2,0,neut
1303,10,42,488,1,0,0,0,neut
1303,10,43,1278,1,0,0,0,inco
1303,10,44,940,1,0,0,0,neut
1303,10,45,505,1,2,2,0,neut
1303,10,46,635,1,0,0,0,inco
1303,10,47,444,1,0,0,0,comp
1303,10,48,419,1,0,0,0,neut
1303,10,49,589,0,0,2,0,inco
1303,10,50,793,1,2,2,0,inco
1303,10,51,475,1,2,2,0,neut
1303,10,52,704,1,2,2,0,comp
1303,10,53,708,1,2,2,0,inco
1303,10,54,431,1,2,2,0,comp
1303,10,55,634,1,0,0,0,comp
1303,10,56,422,1,0,0,0,comp
1303,10,57,851,1,2,2,0,inco
1303,10,58,576,1,0,0,0,neut
1303,10,59,607,1,2,2,0,neut
1303,10,60,832,1,0,0,0,inco
1303,10,61,626,1,2,2,0,comp
1303,10,62,673,1,0,0,0,comp
1303,10,63,994,1,0,0,0,neut
1303,10,64,1298,1,0,0,0,inco
1303,10,65,493,1,0,0,0,neut
1303,10,66,958,1,0,0,0,comp
1303,10,67,503,1,0,0,0,comp
1303,10,68,568,1,2,2,0,inco
1303,10,69,935,1,0,0,0,inco
1303,10,70,645,1,2,2,0,neut
1303,10,71,670,1,0,0,0,inco
1303,10,72,493,1,0,0,0,neut
1303,12,1,687,1,0,0,1,neut
1303,12,2,524,1,2,2,1,inco
1303,12,3,487,1,2,2,1,comp
1303,12,4,431,1,2,2,1,neut
1303,12,5,552,1,2,2,1,neut
1303,12,6,459,1,2,2,1,comp
1303,12,7,430,1,0,0,1,inco
1303,12,8,508,1,2,2,1,comp
1303,12,9,421,1,2,2,1,neut
1303,12,10,562,1,0,0,1,comp
1303,12,11,657,1,2,2,1,inco
1303,12,12,577,0,0,2,1,inco
1303,12,13,804,1,2,2,1,neut
1303,12,14,512,1,2,2,1,comp
1303,12,15,445,1,2,2,1,comp
1303,12,16,525,1,0,0,1,comp
1303,12,17,440,1,2,2,1,neut
1303,12,18,777,1,2,2,1,inco
1303,12,19,594,1,0,0,1,comp
1303,12,20,465,1,2,2,1,inco
1303,12,21,496,1,0,0,1,comp
1303,12,22,425,1,2,2,1,comp
1303,12,23,672,1,0,0,1,neut
1303,12,24,528,1,0,0,1,comp
1303,12,25,479,1,0,0,1,inco
1303,12,26,451,1,0,0,1,comp
1303,12,27,614,1,0,0,1,comp
1303,12,28,359,1,2,2,1,neut
1303,12,29,380,0,0,2,1,comp
1303,12,30,488,1,2,2,1,neut
1303,12,31,528,1,0,0,1,inco
1303,12,32,538,1,0,0,1,neut
1303,12,33,449,1,0,0,1,comp
1303,12,34,1464,1,0,0,1,inco
1303,12,35,703,1,2,2,1,neut
1303,12,36,583,1,0,0,1,inco
1303,12,37,1084,1,2,2,1,neut
1303,12,38,453,1,2,2,1,comp
1303,12,39,522,1,0,0,1,neut
1303,12,40,544,1,0,0,1,comp
1303,12,41,1113,1,2,2,1,inco
1303,12,42,465,1,0,0,1,neut
1303,12,43,1143,0,2,0,1,inco
1303,12,44,464,1,0,0,1,inco
1303,12,45,535,1,0,0,1,comp
1303,12,46,509,1,2,2,1,inco
1303,12,47,671,1,2,2,1,neut
1303,12,48,446,0,0,2,1,inco
1303,12,49,1292,1,0,0,1,neut
1303,12,50,623,1,2,2,1,neut
1303,12,51,458,1,2,2,1,inco
1303,12,52,601,0,2,0,1,neut
1303,12,53,886,1,0,0,1,comp
1303,12,54,889,1,0,0,1,inco
1303,12,55,518,1,2,2,1,inco
1303,12,56,780,1,0,0,1,inco
1303,12,57,586,1,0,0,1,comp
1303,12,58,489,1,2,2,1,comp
1303,12,59,570,1,0,0,1,inco
1303,12,60,865,1,2,2,1,inco
1303,12,61,750,1,2,2,1,comp
1303,12,62,517,1,0,0,1,neut
1303,12,63,540,0,2,0,1,neut
1303,12,64,634,1,0,0,1,neut
1303,12,65,570,1,2,2,1,comp
1303,12,66,720,1,0,0,1,inco
1303,12,67,547,1,2,2,1,inco
1303,12,68,0,0, ,2,1,neut
1303,12,69,704,1,2,2,1,comp
1303,12,70,465,1,0,0,1,neut
1303,12,71,495,0,2,0,1,neut
1303,12,72,1084,1,0,0,1,inco
1303,14,1,593,0,0,2,0,inco
1303,14,2,560,0,2,0,0,comp
1303,14,3,849,1,2,2,0,neut
1303,14,4,769,1,0,0,0,neut
1303,14,5,649,1,0,0,0,neut
1303,14,6,577,1,2,2,0,neut
1303,14,7,651,1,0,0,0,inco
1303,14,8,839,1,0,0,0,inco
1303,14,9,569,1,0,0,0,neut
1303,14,10,568,1,0,0,0,comp
1303,14,11,548,1,2,2,0,comp
1303,14,12,641,1,0,0,0,comp
1303,14,13,962,1,0,0,0,neut
1303,14,14,773,1,2,2,0,neut
1303,14,15,1438,1,2,2,0,inco
1303,14,16,556,1,0,0,0,inco
1303,14,17,660,1,2,2,0,comp
1303,14,18,865,1,2,2,0,inco
1303,14,19,684,1,0,0,0,neut
1303,14,20,483,1,2,2,0,inco
1303,14,21,547,1,0,0,0,neut
1303,14,22,501,1,0,0,0,inco
1303,14,23,873,1,0,0,0,comp
1303,14,24,577,1,2,2,0,comp
1303,14,25,820,1,2,2,0,comp
1303,14,26,1284,0,0,2,0,inco
1303,14,27,680,1,0,0,0,comp
1303,14,28,764,1,0,0,0,inco
1303,14,29,855,1,2,2,0,neut
1303,14,30,0,0, ,2,0,inco
1303,14,31,611,1,2,2,0,comp
1303,14,32,859,0,0,2,0,inco
1303,14,33,823,1,0,0,0,inco
1303,14,34,738,1,2,2,0,comp
1303,14,35,631,1,0,0,0,comp
1303,14,36,867,1,2,2,0,neut
1303,14,37,865,1,2,2,0,inco
1303,14,38,612,1,2,2,0,neut
1303,14,39,0,0, ,0,0,neut
1303,14,40,0,0, ,2,0,neut
1303,14,41,488,1,2,2,0,neut
1303,14,42,516,0,2,0,0,inco
1303,14,43,1046,1,0,0,0,neut
1303,14,44,554,1,2,2,0,neut
1303,14,45,487,1,2,2,0,comp
1303,14,46,785,1,0,0,0,comp
1303,14,47,1206,1,0,0,0,inco
1303,14,48,702,1,2,2,0,comp
1303,14,49,757,1,0,0,0,comp
1303,14,50,709,1,2,2,0,neut
1303,14,51,694,1,2,2,0,neut
1303,14,52,745,1,0,0,0,neut
1303,14,53,918,1,0,0,0,inco
1303,14,54,771,1,0,0,0,inco
1303,14,55,673,1,0,0,0,comp
1303,14,56,646,1,2,2,0,comp
1303,14,57,1171,1,0,0,0,inco
1303,14,58,1282,1,2,2,0,inco
1303,14,59,1280,0,2,0,0,inco
1303,14,60,1097,1,2,2,0,inco
1303,14,61,717,1,2,2,0,inco
1303,14,62,828,1,2,2,0,neut
1303,14,63,490,1,2,2,0,comp
1303,14,64,877,1,0,0,0,neut
1303,14,65,553,1,0,0,0,comp
1303,14,66,889,1,0,0,0,neut
1303,14,67,564,1,0,0,0,comp
1303,14,68,0,0, ,2,0,comp
1303,14,69,597,1,0,0,0,neut
1303,14,70,774,1,2,2,0,inco
1303,14,71,532,1,0,0,0,comp
1303,14,72,863,1,2,2,0,comp
1303,16,1,512,1,2,2,1,inco
1303,16,2,442,1,0,0,1,comp
1303,16,3,429,1,0,0,1,comp
1303,16,4,423,1,2,2,1,neut
1303,16,5,445,1,0,0,1,neut
1303,16,6,466,1,0,0,1,inco
1303,16,7,522,1,2,2,1,inco
1303,16,8,450,1,0,0,1,inco
1303,16,9,789,0,2,0,1,neut
1303,16,10,437,1,0,0,1,inco
1303,16,11,536,1,0,0,1,neut
1303,16,12,0,0, ,2,1,inco
1303,16,13,673,1,0,0,1,neut
1303,16,14,725,1,0,0,1,neut
1303,16,15,727,1,2,2,1,neut
1303,16,16,587,1,0,0,1,inco
1303,16,17,817,1,2,2,1,comp
1303,16,18,455,1,0,0,1,comp
1303,16,19,1052,1,0,0,1,inco
1303,16,20,416,1,2,2,1,neut
1303,16,21,757,1,2,2,1,inco
1303,16,22,540,1,0,0,1,neut
1303,16,23,575,1,2,2,1,neut
1303,16,24,492,1,0,0,1,inco
1303,16,25,662,1,2,2,1,inco
1303,16,26,955,1,2,2,1,inco
1303,16,27,462,1,0,0,1,comp
1303,16,28,928,1,0,0,1,comp
1303,16,29,590,1,0,0,1,comp
1303,16,30,616,1,0,0,1,neut
1303,16,31,673,1,2,2,1,comp
1303,16,32,982,1,0,0,1,inco
1303,16,33,617,1,0,0,1,comp
1303,16,34,510,1,0,0,1,neut
1303,16,35,971,0,2,0,1,neut
1303,16,36,901,0,0,2,1,neut
1303,16,37,573,1,2,2,1,neut
1303,16,38,550,1,2,2,1,inco
1303,16,39,514,1,2,2,1,inco
1303,16,40,668,1,0,0,1,comp
1303,16,41,641,1,0,0,1,comp
1303,16,42,674,1,0,0,1,inco
1303,16,43,708,1,2,2,1,inco
1303,16,44,641,1,0,0,1,inco
1303,16,45,587,1,0,0,1,comp
1303,16,46,975,1,2,2,1,comp
1303,16,47,411,1,2,2,1,comp
1303,16,48,500,1,2,2,1,comp
1303,16,49,436,1,2,2,1,neut
1303,16,50,534,1,2,2,1,comp
1303,16,51,945,1,2,2,1,inco
1303,16,52,459,1,2,2,1,neut
1303,16,53,567,1,2,2,1,neut
1303,16,54,491,1,2,2,1,inco
1303,16,55,365,1,2,2,1,comp
1303,16,56,380,1,2,2,1,inco
1303,16,57,609,1,0,0,1,comp
1303,16,58,517,1,0,0,1,neut
1303,16,59,521,1,2,2,1,comp
1303,16,60,636,1,0,0,1,comp
1303,16,61,480,1,2,2,1,comp
1303,16,62,654,1,0,0,1,inco
1303,16,63,613,1,0,0,1,neut
1303,16,64,481,1,2,2,1,comp
1303,16,65,1256,1,2,2,1,comp
1303,16,66,670,1,0,0,1,inco
1303,16,67,931,1,2,2,1,neut
1303,16,68,827,1,0,0,1,neut
1303,16,69,761,1,2,2,1,comp
1303,16,70,568,1,0,0,1,inco
1303,16,71,537,1,2,2,1,neut
1303,16,72,1251,1,2,2,1,neut
1303,18,1,786,1,2,2,0,neut
1303,18,2,759,1,0,0,0,inco
1303,18,3,542,1,2,2,0,neut
1303,18,4,445,1,2,2,0,comp
1303,18,5,526,0,0,2,0,inco
1303,18,6,953,1,2,2,0,neut
1303,18,7,658,1,2,2,0,inco
1303,18,8,536,1,2,2,0,inco
1303,18,9,573,1,0,0,0,inco
1303,18,10,736,1,0,0,0,inco
1303,18,11,476,1,0,0,0,neut
1303,18,12,950,1,0,0,0,inco
1303,18,13,716,1,0,0,0,comp
1303,18,14,642,1,2,2,0,inco
1303,18,15,639,1,0,0,0,neut
1303,18,16,688,1,0,0,0,neut
1303,18,17,697,1,0,0,0,neut
1303,18,18,529,1,0,0,0,comp
1303,18,19,494,1,0,0,0,neut
1303,18,20,737,1,0,0,0,comp
1303,18,21,494,1,2,2,0,inco
1303,18,22,542,1,2,2,0,neut
1303,18,23,682,1,0,0,0,neut
1303,18,24,931,1,2,2,0,neut
1303,18,25,1165,1,2,2,0,inco
1303,18,26,534,1,0,0,0,neut
1303,18,27,677,1,2,2,0,inco
1303,18,28,1130,1,2,2,0,inco
1303,18,29,770,1,0,0,0,comp
1303,18,30,1197,0,0,2,0,comp
1303,18,31,680,1,2,2,0,neut
1303,18,32,584,1,2,2,0,comp
1303,18,33,581,1,0,0,0,comp
1303,18,34,572,1,2,2,0,comp
1303,18,35,521,1,2,2,0,comp
1303,18,36,549,1,2,2,0,comp
1303,18,37,823,1,0,0,0,inco
1303,18,38,1238,1,0,0,0,inco
1303,18,39,0,0, ,0,0,neut
1303,18,40,550,1,2,2,0,neut
1303,18,41,714,1,2,2,0,inco
1303,18,42,457,1,2,2,0,neut
1303,18,43,549,1,0,0,0,comp
1303,18,44,667,1,0,0,0,comp
1303,18,45,591,0,0,2,0,inco
1303,18,46,433,0,2,0,0,inco
1303,18,47,627,1,0,0,0,comp
1303,18,48,541,1,2,2,0,neut
1303,18,49,664,1,0,0,0,comp
1303,18,50,406,1,0,0,0,inco
1303,18,51,573,1,2,2,0,comp
1303,18,52,772,0,2,0,0,comp
1303,18,53,665,1,2,2,0,comp
1303,18,54,1071,1,0,0,0,inco
1303,18,55,617,1,2,2,0,neut
1303,18,56,1021,1,0,0,0,neut
1303,18,57,751,1,0,0,0,inco
1303,18,58,766,1,2,2,0,comp
1303,18,59,554,1,2,2,0,neut
1303,18,60,552,1,2,2,0,neut
1303,18,61,655,1,0,0,0,inco
1303,18,62,588,1,2,2,0,comp
1303,18,63,904,1,0,0,0,neut
1303,18,64,616,1,2,2,0,inco
1303,18,65,745,1,0,0,0,comp
1303,18,66,588,1,2,2,0,comp
1303,18,67,887,1,0,0,0,neut
1303,18,68,680,1,0,0,0,comp
1303,18,69,1442,1,0,0,0,inco
1303,18,70,1120,1,2,2,0,inco
1303,18,71,602,0,2,0,0,neut
1303,18,72,0,0, ,2,0,comp
1303,20,1,1130,1,0,0,1,comp
1303,20,2,503,1,2,2,1,comp
1303,20,3,534,1,2,2,1,inco
1303,20,4,518,1,0,0,1,neut
1303,20,5,525,1,2,2,1,inco
1303,20,6,717,1,2,2,1,inco
1303,20,7,572,1,2,2,1,comp
1303,20,8,578,1,2,2,1,neut
1303,20,9,698,1,2,2,1,inco
1303,20,10,577,1,2,2,1,inco
1303,20,11,414,1,0,0,1,inco
1303,20,12,501,1,2,2,1,comp
1303,20,13,518,1,2,2,1,neut
1303,20,14,470,1,2,2,1,comp
1303,20,15,536,1,0,0,1,inco
1303,20,16,612,1,2,2,1,inco
1303,20,17,697,1,0,0,1,comp
1303,20,18,490,1,2,2,1,neut
1303,20,19,699,1,2,2,1,inco
1303,20,20,558,1,2,2,1,neut
1303,20,21,467,1,2,2,1,neut
1303,20,22,516,1,0,0,1,inco
1303,20,23,1191,1,0,0,1,comp
1303,20,24,512,1,2,2,1,inco
1303,20,25,498,1,2,2,1,neut
1303,20,26,578,1,0,0,1,comp
1303,20,27,509,1,2,2,1,neut
1303,20,28,534,1,0,0,1,neut
1303,20,29,581,1,2,2,1,comp
1303,20,30,545,1,2,2,1,neut
1303,20,31,500,1,0,0,1,inco
1303,20,32,1048,1,0,0,1,neut
1303,20,33,519,1,2,2,1,neut
1303,20,34,788,1,2,2,1,neut
1303,20,35,569,1,2,2,1,inco
1303,20,36,537,1,0,0,1,inco
1303,20,37,652,1,0,0,1,comp
1303,20,38,526,1,0,0,1,neut
1303,20,39,643,1,2,2,1,comp
1303,20,40,845,1,0,0,1,neut
1303,20,41,846,1,0,0,1,neut
1303,20,42,532,1,2,2,1,comp
1303,20,43,709,1,2,2,1,comp
1303,20,44,636,1,2,2,1,neut
1303,20,45,593,1,0,0,1,neut
1303,20,46,652,1,0,0,1,neut
1303,20,47,752,1,2,2,1,neut
1303,20,48,658,1,0,0,1,inco
1303,20,49,751,1,0,0,1,comp
1303,20,50,585,1,0,0,1,comp
1303,20,51,471,1,0,0,1,neut
1303,20,52,549,1,2,2,1,comp
1303,20,53,787,1,0,0,1,neut
1303,20,54,603,1,0,0,1,inco
1303,20,55,1325,1,2,2,1,inco
1303,20,56,632,1,0,0,1,neut
1303,20,57,597,1,0,0,1,comp
1303,20,58,644,1,0,0,1,comp
1303,20,59,609,1,0,0,1,comp
1303,20,60,517,1,0,0,1,inco
1303,20,61,575,1,0,0,1,neut
1303,20,62,704,1,0,0,1,inco
1303,20,63,658,1,2,2,1,comp
1303,20,64,648,1,0,0,1,inco
1303,20,65,1009,1,0,0,1,inco
1303,20,66,643,1,0,0,1,comp
1303,20,67,592,1,0,0,1,comp
1303,20,68,867,1,2,2,1,inco
1303,20,69,577,1,2,2,1,comp
1303,20,70,618,1,0,0,1,inco
1303,20,71,592,1,2,2,1,inco
1303,20,72,621,1,2,2,1,comp
1303,22,1,370,1,2,2,0,neut
1303,22,2,918,1,2,2,0,neut
1303,22,3,498,1,2,2,0,neut
1303,22,4,605,1,2,2,0,inco
1303,22,5,448,1,2,2,0,comp
1303,22,6,718,1,2,2,0,inco
1303,22,7,452,1,2,2,0,neut
1303,22,8,558,1,0,0,0,inco
1303,22,9,610,1,0,0,0,comp
1303,22,10,559,1,0,0,0,comp
1303,22,11,748,1,0,0,0,neut
1303,22,12,1151,1,0,0,0,neut
1303,22,13,628,1,2,2,0,inco
1303,22,14,610,1,2,2,0,comp
1303,22,15,0,0, ,2,0,inco
1303,22,16,715,1,0,0,0,inco
1303,22,17,494,1,0,0,0,neut
1303,22,18,621,1,0,0,0,neut
1303,22,19,914,1,2,2,0,comp
1303,22,20,672,1,2,2,0,comp
1303,22,21,851,1,2,2,0,inco
1303,22,22,805,1,0,0,0,inco
1303,22,23,607,1,0,0,0,inco
1303,22,24,568,1,0,0,0,comp
1303,22,25,518,1,2,2,0,neut
1303,22,26,654,1,0,0,0,comp
1303,22,27,770,1,2,2,0,inco
1303,22,28,1321,1,2,2,0,comp
1303,22,29,470,1,0,0,0,neut
1303,22,30,1459,1,0,0,0,inco
1303,22,31,1092,1,2,2,0,comp
1303,22,32,557,1,0,0,0,neut
1303,22,33,695,1,0,0,0,comp
1303,22,34,626,1,2,2,0,neut
1303,22,35,849,0,2,0,0,inco
1303,22,36,990,1,2,2,0,comp
1303,22,37,1412,1,2,2,0,inco
1303,22,38,665,1,0,0,0,inco
1303,22,39,1191,1,0,0,0,inco
1303,22,40,1029,1,2,2,0,inco
1303,22,41,900,1,0,0,0,neut
1303,22,42,1260,1,0,0,0,inco
1303,22,43,567,1,0,0,0,comp
1303,22,44,1129,0,2,0,0,inco
1303,22,45,565,1,0,0,0,neut
1303,22,46,800,1,2,2,0,comp
1303,22,47,673,1,0,0,0,neut
1303,22,48,0,0, ,2,0,inco
1303,22,49,745,1,2,2,0,comp
1303,22,50,691,1,0,0,0,inco
1303,22,51,755,1,2,2,0,neut
1303,22,52,0,0, ,2,0,neut
1303,22,53,0,0, ,2,0,neut
1303,22,54,675,1,2,2,0,neut
1303,22,55,498,1,2,2,0,comp
1303,22,56,841,1,0,0,0,comp
1303,22,57,710,1,0,0,0,comp
1303,22,58,633,1,0,0,0,comp
1303,22,59,606,1,0,0,0,neut
1303,22,60,985,1,2,2,0,neut
1303,22,61,842,1,2,2,0,inco
1303,22,62,709,1,2,2,0,comp
1303,22,63,815,1,2,2,0,neut
1303,22,64,846,1,0,0,0,comp
1303,22,65,1098,1,0,0,0,comp
1303,22,66,745,1,0,0,0,inco
1303,22,67,681,1,0,0,0,neut
1303,22,68,1086,1,0,0,0,neut
1303,22,69,0,0, ,2,0,comp
1303,22,70,815,1,2,2,0,inco
1303,22,71,840,1,0,0,0,comp
1303,22,72,954,1,2,2,0,inco
1303,24,1,460,1,2,2,1,comp
1303,24,2,515,1,0,0,1,neut
1303,24,3,624,1,0,0,1,neut
1303,24,4,819,0,2,0,1,inco
1303,24,5,1004,1,0,0,1,neut
1303,24,6,576,1,2,2,1,neut
1303,24,7,927,1,2,2,1,neut
1303,24,8,571,1,0,0,1,neut
1303,24,9,645,1,0,0,1,comp
1303,24,10,1014,0,2,0,1,neut
1303,24,11,632,1,0,0,1,neut
1303,24,12,801,1,0,0,1,neut
1303,24,13,1309,1,2,2,1,neut
1303,24,14,861,1,0,0,1,inco
1303,24,15,654,1,0,0,1,inco
1303,24,16,793,1,2,2,1,comp
1303,24,17,706,1,2,2,1,comp
1303,24,18,700,1,0,0,1,inco
1303,24,19,778,1,2,2,1,comp
1303,24,20,885,1,2,2,1,inco
1303,24,21,654,1,0,0,1,comp
1303,24,22,921,1,2,2,1,inco
1303,24,23,664,1,0,0,1,comp
1303,24,24,940,1,2,2,1,neut
1303,24,25,917,1,2,2,1,neut
1303,24,26,0,0, ,2,1,inco
1303,24,27,0,0, ,0,1,inco
1303,24,28,0,0, ,0,1,comp
1303,24,29,661,1,2,2,1,neut
1303,24,30,585,1,2,2,1,inco
1303,24,31,408,1,2,2,1,comp
1303,24,32,689,1,0,0,1,inco
1303,24,33,548,1,2,2,1,inco
1303,24,34,500,1,2,2,1,neut
1303,24,35,657,1,0,0,1,inco
1303,24,36,606,1,2,2,1,inco
1303,24,37,597,1,0,0,1,inco
1303,24,38,614,1,0,0,1,comp
1303,24,39,773,1,0,0,1,neut
1303,24,40,663,1,2,2,1,comp
1303,24,41,681,1,2,2,1,inco
1303,24,42,558,1,2,2,1,comp
1303,24,43,607,1,2,2,1,comp
1303,24,44,703,1,2,2,1,inco
1303,24,45,508,1,0,0,1,neut
1303,24,46,619,1,0,0,1,neut
1303,24,47,967,0,2,0,1,inco
1303,24,48,999,1,2,2,1,comp
1303,24,49,598,1,0,0,1,inco
1303,24,50,628,1,2,2,1,neut
1303,24,51,619,1,2,2,1,inco
1303,24,52,498,1,2,2,1,inco
1303,24,53,1070,1,2,2,1,inco
1303,24,54,627,1,0,0,1,neut
1303,24,55,708,1,0,0,1,comp
1303,24,56,560,1,2,2,1,neut
1303,24,57,635,1,0,0,1,comp
1303,24,58,493,1,0,0,1,neut
1303,24,59,786,1,2,2,1,neut
1303,24,60,507,1,2,2,1,comp
1303,24,61,621,1,0,0,1,inco
1303,24,62,538,1,0,0,1,comp
1303,24,63,483,1,2,2,1,comp
1303,24,64,585,1,2,2,1,neut
1303,24,65,570,1,2,2,1,comp
1303,24,66,589,1,0,0,1,comp
1303,24,67,655,1,2,2,1,inco
1303,24,68,686,1,2,2,1,neut
1303,24,69,543,0,2,0,1,comp
1303,24,70,645,1,0,0,1,inco
1303,24,71,520,1,0,0,1,comp
1303,24,72,609,1,0,0,1,comp
1303,26,1,0,0, ,2,0,comp
1303,26,2,735,1,0,0,0,neut
1303,26,3,508,1,2,2,0,neut
1303,26,4,545,1,2,2,0,comp
1303,26,5,501,1,0,0,0,neut
1303,26,6,465,1,2,2,0,neut
1303,26,7,750,1,2,2,0,inco
1303,26,8,761,1,2,2,0,inco
1303,26,9,623,1,2,2,0,inco
1303,26,10,799,1,0,0,0,comp
1303,26,11,661,1,0,0,0,comp
1303,26,12,869,1,0,0,0,inco
1303,26,13,533,1,0,0,0,comp
1303,26,14,597,1,0,0,0,comp
1303,26,15,526,1,0,0,0,comp
1303,26,16,546,1,2,2,0,neut
1303,26,17,541,1,0,0,0,comp
1303,26,18,523,1,0,0,0,neut
1303,26,19,543,1,2,2,0,inco
1303,26,20,695,1,0,0,0,inco
1303,26,21,596,1,0,0,0,neut
1303,26,22,597,1,2,2,0,inco
1303,26,23,645,1,0,0,0,inco
1303,26,24,565,1,0,0,0,neut
1303,26,25,624,1,0,0,0,inco
1303,26,26,533,1,0,0,0,comp
1303,26,27,610,1,2,2,0,neut
1303,26,28,671,1,2,2,0,inco
1303,26,29,581,1,2,2,0,inco
1303,26,30,1142,1,2,2,0,inco
1303,26,31,1307,1,2,2,0,inco
1303,26,32,840,1,0,0,0,inco
1303,26,33,556,1,0,0,0,neut
1303,26,34,752,1,2,2,0,neut
1303,26,35,724,1,0,0,0,inco
1303,26,36,617,1,0,0,0,inco
1303,26,37,513,0,2,0,0,neut
1303,26,38,804,1,2,2,0,comp
1303,26,39,515,1,2,2,0,comp
1303,26,40,526,1,2,2,0,neut
1303,26,41,568,1,2,2,0,inco
1303,26,42,496,1,2,2,0,comp
1303,26,43,614,1,2,2,0,neut
1303,26,44,656,1,2,2,0,neut
1303,26,45,758,1,0,0,0,inco
1303,26,46,684,1,0,0,0,neut
1303,26,47,908,1,0,0,0,neut
1303,26,48,460,1,2,2,0,neut
1303,26,49,576,1,2,2,0,comp
1303,26,50,499,1,2,2,0,comp
1303,26,51,661,1,0,0,0,comp
1303,26,52,1146,1,0,0,0,inco
1303,26,53,835,1,0,0,0,comp
1303,26,54,1332,1,0,0,0,inco
1303,26,55,592,1,2,2,0,inco
1303,26,56,943,1,0,0,0,inco
1303,26,57,786,1,0,0,0,inco
1303,26,58,711,1,0,0,0,comp
1303,26,59,605,1,2,2,0,comp
1303,26,60,675,1,0,0,0,neut
1303,26,61,850,1,0,0,0,neut
1303,26,62,610,1,2,2,0,neut
1303,26,63,742,0,0,2,0,inco
1303,26,64,0,0, ,2,0,neut
1303,26,65,481,1,2,2,0,comp
1303,26,66,501,1,2,2,0,comp
1303,26,67,701,1,0,0,0,neut
1303,26,68,667,1,0,0,0,comp
1303,26,69,636,1,2,2,0,neut
1303,26,70,534,1,2,2,0,comp
1303,26,71,732,1,2,2,0,comp
1303,26,72,570,1,0,0,0,comp
1303,28,1,505,1,2,2,1,comp
1303,28,2,539,1,2,2,1,neut
1303,28,3,762,1,2,2,1,inco
1303,28,4,496,1,0,0,1,neut
1303,28,5,404,1,2,2,1,neut
1303,28,6,510,1,2,2,1,inco
1303,28,7,563,1,2,2,1,comp
1303,28,8,464,1,2,2,1,comp
1303,28,9,477,1,2,2,1,neut
1303,28,10,601,1,0,0,1,neut
1303,28,11,707,1,0,0,1,inco
1303,28,12,502,1,0,0,1,comp
1303,28,13,538,1,0,0,1,neut
1303,28,14,559,1,0,0,1,neut
1303,28,15,545,1,0,0,1,inco
1303,28,16,444,1,0,0,1,inco
1303,28,17,554,1,2,2,1,inco
1303,28,18,423,1,2,2,1,comp
1303,28,19,690,1,0,0,1,neut
1303,28,20,677,1,0,0,1,comp
1303,28,21,552,1,2,2,1,comp
1303,28,22,496,1,0,0,1,comp
1303,28,23,471,1,2,2,1,neut
1303,28,24,511,1,0,0,1,comp
1303,28,25,553,1,2,2,1,inco
1303,28,26,730,1,2,2,1,comp
1303,28,27,450,1,0,0,1,comp
1303,28,28,459,1,2,2,1,neut
1303,28,29,473,1,2,2,1,comp
1303,28,30,594,1,0,0,1,inco
1303,28,31,534,0,2,0,1,inco
1303,28,32,751,1,0,0,1,neut
1303,28,33,955,1,0,0,1,neut
1303,28,34,584,1,2,2,1,neut
1303,28,35,534,1,0,0,1,inco
1303,28,36,814,1,0,0,1,inco
1303,28,37,604,1,0,0,1,neut
1303,28,38,978,1,0,0,1,inco
1303,28,39,537,1,2,2,1,neut
1303,28,40,576,1,2,2,1,inco
1303,28,41,622,1,2,2,1,inco
1303,28,42,757,1,0,0,1,comp
1303,28,43,612,1,0,0,1,inco
1303,28,44,855,1,2,2,1,neut
1303,28,45,634,1,2,2,1,inco
1303,28,46,647,1,2,2,1,comp
1303,28,47,717,1,0,0,1,comp
1303,28,48,767,0,0,2,1,inco
1303,28,49,566,1,2,2,1,inco
1303,28,50,670,1,2,2,1,comp
1303,28,51,579,1,2,2,1,inco
1303,28,52,575,1,0,0,1,inco
1303,28,53,599,1,0,0,1,neut
1303,28,54,738,1,2,2,1,comp
1303,28,55,502,1,0,0,1,comp
1303,28,56,562,1,2,2,1,inco
1303,28,57,622,1,2,2,1,neut
1303,28,58,515,1,0,0,1,comp
1303,28,59,594,1,0,0,1,comp
1303,28,60,683,1,2,2,1,comp
1303,28,61,578,1,0,0,1,inco
1303,28,62,540,1,2,2,1,neut
1303,28,63,644,1,0,0,1,comp
1303,28,64,802,1,2,2,1,neut
1303,28,65,688,1,2,2,1,comp
1303,28,66,572,1,0,0,1,neut
1303,28,67,670,1,2,2,1,neut
1303,28,68,761,1,2,2,1,inco
1303,28,69,632,1,0,0,1,inco
1303,28,70,611,1,0,0,1,comp
1303,28,71,482,1,0,0,1,neut
1303,28,72,445,1,0,0,1,neut
1305,6,1,614,1,2,2,0,inco
1305,6,2,371,1,2,2,0,comp
1305,6,3,430,1,0,0,0,inco
1305,6,4,418,1,0,0,0,neut
1305,6,5,345,1,0,0,0,neut
1305,6,6,812,1,2,2,0,neut
1305,6,7,471,1,0,0,0,inco
1305,6,8,420,1,2,2,0,comp
1305,6,9,443,1,0,0,0,inco
1305,6,10,327,1,2,2,0,inco
1305,6,11,363,1,0,0,0,neut
1305,6,12,348,1,2,2,0,comp
1305,6,13,369,1,2,2,0,neut
1305,6,14,334,0,0,2,0,neut
1305,6,15,413,1,0,0,0,inco
1305,6,16,325,1,2,2,0,neut
1305,6,17,524,1,2,2,0,inco
1305,6,18,305,1,2,2,0,comp
1305,6,19,330,1,2,2,0,neut
1305,6,20,322,1,0,0,0,inco
1305,6,21,548,1,2,2,0,inco
1305,6,22,433,1,0,0,0,comp
1305,6,23,390,1,2,2,0,comp
1305,6,24,373,1,2,2,0,inco
1305,6,25,512,1,2,2,0,inco
1305,6,26,455,1,2,2,0,neut
1305,6,27,369,1,2,2,0,comp
1305,6,28,435,1,0,0,0,neut
1305,6,29,441,1,2,2,0,neut
1305,6,30,398,1,0,0,0,neut
1305,6,31,459,1,2,2,0,comp
1305,6,32,510,1,2,2,0,inco
1305,6,33,399,1,0,0,0,comp
1305,6,34,483,1,2,2,0,comp
1305,6,35,318,1,2,2,0,comp
1305,6,36,489,1,2,2,0,neut
1305,6,37,450,1,0,0,0,inco
1305,6,38,507,1,0,0,0,inco
1305,6,39,382,1,0,0,0,neut
1305,6,40,420,1,0,0,0,inco
1305,6,41,445,1,2,2,0,inco
1305,6,42,388,1,0,0,0,comp
1305,6,43,514,1,0,0,0,inco
1305,6,44,427,1,2,2,0,inco
1305,6,45,487,1,2,2,0,inco
1305,6,46,385,1,2,2,0,neut
1305,6,47,408,1,0,0,0,comp
1305,6,48,415,1,0,0,0,inco
1305,6,49,431,0,2,0,0,inco
1305,6,50,409,1,0,0,0,comp
1305,6,51,344,1,0,0,0,comp
1305,6,52,346,1,0,0,0,comp
1305,6,53,351,1,0,0,0,neut
1305,6,54,445,1,2,2,0,neut
1305,6,55,370,1,2,2,0,neut
1305,6,56,414,1,0,0,0,comp
1305,6,57,449,1,0,0,0,neut
1305,6,58,378,1,2,2,0,comp
1305,6,59,361,1,0,0,0,neut
1305,6,60,325,1,0,0,0,comp
1305,6,61,410,1,0,0,0,neut
1305,6,62,357,1,0,0,0,comp
1305,6,63,350,1,0,0,0,comp
1305,6,64,372,1,0,0,0,comp
1305,6,65,405,0,0,2,0,comp
1305,6,66,418,1,2,2,0,inco
1305,6,67,379,1,0,0,0,inco
1305,6,68,520,1,0,0,0,neut
1305,6,69,448,1,2,2,0,comp
1305,6,70,384,1,0,0,0,neut
1305,6,71,464,1,2,2,0,neut
1305,6,72,381,1,2,2,0,inco
1305,8,1,441,1,2,2,1,neut
1305,8,2,343,1,2,2,1,neut
1305,8,3,361,1,2,2,1,neut
1305,8,4,371,1,0,0,1,comp
1305,8,5,423,1,2,2,1,comp
1305,8,6,518,1,2,2,1,neut
1305,8,7,440,1,0,0,1,inco
1305,8,8,384,1,2,2,1,comp
1305,8,9,503,1,2,2,1,inco
1305,8,10,417,1,0,0,1,neut
1305,8,11,541,1,0,0,1,inco
1305,8,12,400,1,2,2,1,comp
1305,8,13,504,1,2,2,1,inco
1305,8,14,486,1,2,2,1,inco
1305,8,15,431,1,0,0,1,neut
1305,8,16,427,1,2,2,1,comp
1305,8,17,440,1,0,0,1,neut
1305,8,18,375,1,2,2,1,inco
1305,8,19,439,1,2,2,1,comp
1305,8,20,421,1,0,0,1,inco
1305,8,21,383,1,0,0,1,comp
1305,8,22,366,1,0,0,1,comp
1305,8,23,402,1,0,0,1,comp
1305,8,24,399,1,0,0,1,neut
1305,8,25,402,1,0,0,1,neut
1305,8,26,469,1,2,2,1,inco
1305,8,27,600,1,0,0,1,comp
1305,8,28,389,1,0,0,1,neut
1305,8,29,397,1,0,0,1,neut
1305,8,30,329,1,0,0,1,comp
1305,8,31,367,1,0,0,1,inco
1305,8,32,560,1,2,2,1,neut
1305,8,33,338,1,2,2,1,comp
1305,8,34,401,1,0,0,1,neut
1305,8,35,471,1,2,2,1,inco
1305,8,36,422,1,0,0,1,neut
1305,8,37,351,1,0,0,1,inco
1305,8,38,336,0,0,2,1,inco
1305,8,39,440,1,2,2,1,neut
1305,8,40,320,1,0,0,1,inco
1305,8,41,454,1,2,2,1,comp
1305,8,42,346,1,2,2,1,inco
1305,8,43,367,1,2,2,1,inco
1305,8,44,406,1,2,2,1,inco
1305,8,45,618,1,0,0,1,inco
1305,8,46,439,1,2,2,1,neut
1305,8,47,392,1,0,0,1,neut
1305,8,48,436,1,2,2,1,neut
1305,8,49,395,1,2,2,1,comp
1305,8,50,381,1,2,2,1,neut
1305,8,51,442,1,0,0,1,neut
1305,8,52,486,1,2,2,1,neut
1305,8,53,367,1,0,0,1,comp
1305,8,54,388,1,0,0,1,inco
1305,8,55,454,1,0,0,1,inco
1305,8,56,366,1,2,2,1,comp
1305,8,57,461,1,2,2,1,inco
1305,8,58,575,1,2,2,1,inco
1305,8,59,354,1,0,0,1,neut
1305,8,60,385,1,0,0,1,comp
1305,8,61,521,1,2,2,1,comp
1305,8,62,458,1,0,0,1,comp
1305,8,63,475,1,2,2,1,comp
1305,8,64,443,1,2,2,1,comp
1305,8,65,389,1,0,0,1,inco
1305,8,66,386,1,2,2,1,neut
1305,8,67,394,1,0,0,1,comp
1305,8,68,473,1,0,0,1,inco
1305,8,69,371,1,0,0,1,comp
1305,8,70,361,1,0,0,1,inco
1305,8,71,432,1,2,2,1,neut
1305,8,72,416,1,0,0,1,comp
1305,10,1,379,1,0,0,0,neut
1305,10,2,348,1,0,0,0,neut
1305,10,3,321,1,0,0,0,comp
1305,10,4,418,1,0,0,0,inco
1305,10,5,417,1,0,0,0,inco
1305,10,6,418,1,0,0,0,inco
1305,10,7,322,1,0,0,0,comp
1305,10,8,344,1,0,0,0,comp
1305,10,9,312,1,0,0,0,neut
1305,10,10,503,1,0,0,0,inco
1305,10,11,367,1,0,0,0,neut
1305,10,12,372,1,2,2,0,comp
1305,10,13,358,1,2,2,0,comp
1305,10,14,416,1,2,2,0,comp
1305,10,15,373,1,2,2,0,comp
1305,10,16,399,1,0,0,0,neut
1305,10,17,421,1,2,2,0,neut
1305,10,18,364,1,2,2,0,comp
1305,10,19,492,1,2,2,0,inco
1305,10,20,515,1,2,2,0,neut
1305,10,21,417,1,0,0,0,neut
1305,10,22,639,1,2,2,0,inco
1305,10,23,460,1,2,2,0,neut
1305,10,24,387,1,0,0,0,comp
1305,10,25,378,1,2,2,0,comp
1305,10,26,316,1,0,0,0,comp
1305,10,27,338,1,0,0,0,neut
1305,10,28,467,1,2,2,0,inco
1305,10,29,429,1,2,2,0,neut
1305,10,30,343,1,2,2,0,comp
1305,10,31,334,1,0,0,0,comp
1305,10,32,407,1,2,2,0,neut
1305,10,33,396,1,2,2,0,inco
1305,10,34,398,1,2,2,0,neut
1305,10,35,310,1,0,0,0,comp
1305,10,36,450,1,2,2,0,comp
1305,10,37,399,1,2,2,0,neut
1305,10,38,303,0,0,2,0,neut
1305,10,39,435,1,0,0,0,neut
1305,10,40,434,1,2,2,0,comp
1305,10,41,393,1,0,0,0,neut
1305,10,42,402,1,0,0,0,comp
1305,10,43,436,1,0,0,0,inco
1305,10,44,378,1,0,0,0,comp
1305,10,45,516,1,2,2,0,inco
1305,10,46,370,1,0,0,0,inco
1305,10,47,476,1,2,2,0,inco
1305,10,48,526,1,2,2,0,comp
1305,10,49,366,1,2,2,0,comp
1305,10,50,367,1,2,2,0,inco
1305,10,51,360,1,0,0,0,inco
1305,10,52,542,1,2,2,0,neut
1305,10,53,546,1,2,2,0,inco
1305,10,54,434,1,0,0,0,inco
1305,10,55,451,1,2,2,0,inco
1305,10,56,411,1,0,0,0,neut
1305,10,57,444,1,2,2,0,comp
1305,10,58,512,1,0,0,0,neut
1305,10,59,434,1,0,0,0,inco
1305,10,60,402,1,2,2,0,inco
1305,10,61,374,1,0,0,0,neut
1305,10,62,333,1,0,0,0,comp
1305,10,63,521,1,2,2,0,neut
1305,10,64,388,1,0,0,0,comp
1305,10,65,428,1,0,0,0,inco
1305,10,66,322,1,2,2,0,inco
1305,10,67,310,1,0,0,0,inco
1305,10,68,408,1,0,0,0,comp
1305,10,69,310,0,0,2,0,inco
1305,10,70,436,1,2,2,0,neut
1305,10,71,739,1,2,2,0,neut
1305,10,72,330,1,0,0,0,inco
1305,12,1,378,1,0,0,1,comp
1305,12,2,364,1,0,0,1,inco
1305,12,3,477,1,2,2,1,neut
1305,12,4,478,1,2,2,1,neut
1305,12,5,364,1,2,2,1,inco
1305,12,6,533,1,2,2,1,inco
1305,12,7,376,1,0,0,1,comp
1305,12,8,354,1,0,0,1,inco
1305,12,9,422,1,2,2,1,comp
1305,12,10,359,1,2,2,1,comp
1305,12,11,431,1,2,2,1,neut
1305,12,12,464,1,0,0,1,inco
1305,12,13,453,1,2,2,1,inco
1305,12,14,380,1,2,2,1,comp
1305,12,15,450,1,0,0,1,inco
1305,12,16,441,1,0,0,1,neut
1305,12,17,377,1,0,0,1,neut
1305,12,18,450,1,2,2,1,inco
1305,12,19,454,1,2,2,1,comp
1305,12,20,468,1,0,0,1,inco
1305,12,21,442,1,2,2,1,neut
1305,12,22,429,1,2,2,1,inco
1305,12,23,400,1,0,0,1,neut
1305,12,24,397,1,2,2,1,comp
1305,12,25,523,1,2,2,1,neut
1305,12,26,438,1,0,0,1,inco
1305,12,27,423,1,2,2,1,neut
1305,12,28,366,1,0,0,1,inco
1305,12,29,414,1,2,2,1,neut
1305,12,30,591,1,0,0,1,comp
1305,12,31,443,1,2,2,1,neut
1305,12,32,417,1,0,0,1,comp
1305,12,33,410,1,0,0,1,neut
1305,12,34,357,1,0,0,1,comp
1305,12,35,446,1,2,2,1,inco
1305,12,36,504,1,2,2,1,inco
1305,12,37,371,1,2,2,1,inco
1305,12,38,340,1,2,2,1,comp
1305,12,39,424,1,2,2,1,inco
1305,12,40,414,1,0,0,1,neut
1305,12,41,377,1,0,0,1,neut
1305,12,42,356,1,2,2,1,neut
1305,12,43,435,1,0,0,1,inco
1305,12,44,343,1,0,0,1,comp
1305,12,45,382,1,2,2,1,comp
1305,12,46,446,1,2,2,1,inco
1305,12,47,473,1,2,2,1,comp
1305,12,48,500,1,0,0,1,comp
1305,12,49,476,1,2,2,1,neut
1305,12,50,490,1,0,0,1,neut
1305,12,51,354,1,0,0,1,neut
1305,12,52,440,1,2,2,1,neut
1305,12,53,360,1,2,2,1,inco
1305,12,54,363,1,0,0,1,neut
1305,12,55,440,1,2,2,1,comp
1305,12,56,473,1,2,2,1,inco
1305,12,57,421,1,0,0,1,neut
1305,12,58,350,1,0,0,1,neut
1305,12,59,386,1,0,0,1,comp
1305,12,60,354,1,2,2,1,neut
1305,12,61,309,1,2,2,1,comp
1305,12,62,409,1,0,0,1,comp
1305,12,63,419,1,2,2,1,comp
1305,12,64,374,1,2,2,1,comp
1305,12,65,437,1,0,0,1,inco
1305,12,66,332,1,0,0,1,inco
1305,12,67,338,1,0,0,1,inco
1305,12,68,324,1,0,0,1,comp
1305,12,69,353,1,0,0,1,neut
1305,12,70,344,1,0,0,1,comp
1305,12,71,427,1,0,0,1,inco
1305,12,72,355,1,0,0,1,comp
1305,14,1,362,1,0,0,0,neut
1305,14,2,411,1,0,0,0,comp
1305,14,3,333,1,0,0,0,neut
1305,14,4,320,1,0,0,0,neut
1305,14,5,410,1,0,0,0,inco
1305,14,6,348,1,0,0,0,neut
1305,14,7,324,1,2,2,0,comp
1305,14,8,430,1,0,0,0,inco
1305,14,9,420,1,2,2,0,comp
1305,14,10,466,1,2,2,0,neut
1305,14,11,395,0,2,0,0,neut
1305,14,12,374,1,0,0,0,neut
1305,14,13,392,1,0,0,0,neut
1305,14,14,483,1,2,2,0,inco
1305,14,15,456,1,0,0,0,inco
1305,14,16,447,1,0,0,0,comp
1305,14,17,529,1,2,2,0,inco
1305,14,18,503,1,2,2,0,inco
1305,14,19,380,0,0,2,0,inco
1305,14,20,546,1,2,2,0,neut
1305,14,21,523,1,2,2,0,neut
1305,14,22,531,1,2,2,0,inco
1305,14,23,362,1,2,2,0,comp
1305,14,24,446,1,0,0,0,inco
1305,14,25,481,1,2,2,0,neut
1305,14,26,438,1,0,0,0,inco
1305,14,27,327,1,2,2,0,comp
1305,14,28,471,1,2,2,0,inco
1305,14,29,352,1,0,0,0,comp
1305,14,30,404,1,2,2,0,comp
1305,14,31,405,1,2,2,0,inco
1305,14,32,446,1,2,2,0,comp
1305,14,33,409,1,2,2,0,inco
1305,14,34,391,1,0,0,0,comp
1305,14,35,437,1,2,2,0,inco
1305,14,36,367,1,2,2,0,comp
1305,14,37,372,1,0,0,0,inco
1305,14,38,447,1,2,2,0,neut
1305,14,39,440,1,2,2,0,neut
1305,14,40,424,1,0,0,0,comp
1305,14,41,336,1,0,0,0,comp
1305,14,42,447,1,2,2,0,neut
1305,14,43,420,1,0,0,0,inco
1305,14,44,317,1,2,2,0,comp
1305,14,45,448,1,2,2,0,neut
1305,14,46,363,1,0,0,0,comp
1305,14,47,604,1,0,0,0,comp
1305,14,48,424,1,0,0,0,comp
1305,14,49,625,1,2,2,0,comp
1305,14,50,372,1,0,0,0,neut
1305,14,51,653,1,0,0,0,inco
1305,14,52,426,1,2,2,0,comp
1305,14,53,521,1,2,2,0,inco
1305,14,54,370,1,0,0,0,neut
1305,14,55,412,1,0,0,0,neut
1305,14,56,457,1,0,0,0,inco
1305,14,57,367,1,0,0,0,comp
1305,14,58,340,1,0,0,0,inco
1305,14,59,447,1,2,2,0,neut
1305,14,60,378,1,0,0,0,inco
1305,14,61,444,1,2,2,0,comp
1305,14,62,331,1,0,0,0,neut
1305,14,63,393,1,2,2,0,comp
1305,14,64,386,1,0,0,0,inco
1305,14,65,444,1,2,2,0,neut
1305,14,66,341,1,0,0,0,neut
1305,14,67,463,1,2,2,0,neut
1305,14,68,475,1,2,2,0,inco
1305,14,69,381,1,2,2,0,neut
1305,14,70,385,1,0,0,0,comp
1305,14,71,411,1,0,0,0,comp
1305,14,72,469,1,2,2,0,inco
1305,16,1,337,1,0,0,1,inco
1305,16,2,347,1,0,0,1,inco
1305,16,3,364,1,2,2,1,comp
1305,16,4,384,1,2,2,1,comp
1305,16,5,462,1,0,0,1,comp
1305,16,6,328,1,0,0,1,comp
1305,16,7,409,1,0,0,1,neut
1305,16,8,394,1,2,2,1,comp
1305,16,9,404,1,2,2,1,neut
1305,16,10,473,1,0,0,1,inco
1305,16,11,355,1,0,0,1,inco
1305,16,12,352,1,0,0,1,neut
1305,16,13,388,1,0,0,1,comp
1305,16,14,335,1,2,2,1,comp
1305,16,15,359,1,2,2,1,comp
1305,16,16,450,1,2,2,1,comp
1305,16,17,481,1,0,0,1,inco
1305,16,18,377,1,0,0,1,inco
1305,16,19,484,1,0,0,1,inco
1305,16,20,425,1,2,2,1,neut
1305,16,21,515,1,2,2,1,inco
1305,16,22,425,1,2,2,1,inco
1305,16,23,384,1,2,2,1,comp
1305,16,24,464,1,2,2,1,inco
1305,16,25,471,1,2,2,1,inco
1305,16,26,427,1,0,0,1,inco
1305,16,27,354,1,0,0,1,comp
1305,16,28,407,1,0,0,1,neut
1305,16,29,390,1,0,0,1,comp
1305,16,30,396,1,2,2,1,neut
1305,16,31,421,1,0,0,1,neut
1305,16,32,426,1,2,2,1,comp
1305,16,33,476,1,2,2,1,comp
1305,16,34,413,1,0,0,1,comp
1305,16,35,413,1,0,0,1,inco
1305,16,36,363,1,0,0,1,inco
1305,16,37,436,1,0,0,1,neut
1305,16,38,367,1,0,0,1,neut
1305,16,39,379,1,2,2,1,inco
1305,16,40,511,1,2,2,1,inco
1305,16,41,463,1,0,0,1,neut
1305,16,42,444,1,0,0,1,comp
1305,16,43,371,1,0,0,1,comp
1305,16,44,475,1,2,2,1,inco
1305,16,45,333,1,2,2,1,comp
1305,16,46,363,1,2,2,1,comp
1305,16,47,505,1,2,2,1,neut
1305,16,48,368,1,2,2,1,inco
1305,16,49,383,1,0,0,1,comp
1305,16,50,363,1,2,2,1,inco
1305,16,51,405,1,2,2,1,inco
1305,16,52,474,1,0,0,1,inco
1305,16,53,464,1,0,0,1,inco
1305,16,54,466,1,0,0,1,comp
1305,16,55,396,1,2,2,1,neut
1305,16,56,338,1,0,0,1,neut
1305,16,57,337,1,0,0,1,neut
1305,16,58,422,1,0,0,1,neut
1305,16,59,473,1,2,2,1,neut
1305,16,60,456,1,2,2,1,neut
1305,16,61,438,1,0,0,1,comp
1305,16,62,393,1,0,0,1,neut
1305,16,63,426,1,2,2,1,comp
1305,16,64,369,1,2,2,1,neut
1305,16,65,336,1,2,2,1,inco
1305,16,66,408,1,2,2,1,neut
1305,16,67,378,1,0,0,1,comp
1305,16,68,466,1,2,2,1,inco
1305,16,69,396,1,2,2,1,neut
1305,16,70,388,1,0,0,1,neut
1305,16,71,327,1,2,2,1,neut
1305,16,72,322,1,2,2,1,neut
1305,18,1,442,1,2,2,0,inco
1305,18,2,449,1,2,2,0,neut
1305,18,3,376,1,2,2,0,inco
1305,18,4,312,1,0,0,0,comp
1305,18,5,422,1,2,2,0,comp
1305,18,6,411,1,0,0,0,inco
1305,18,7,358,1,0,0,0,neut
1305,18,8,459,1,2,2,0,neut
1305,18,9,298,1,2,2,0,comp
1305,18,10,426,1,0,0,0,neut
1305,18,11,361,1,2,2,0,comp
1305,18,12,391,1,0,0,0,inco
1305,18,13,368,1,0,0,0,inco
1305,18,14,347,1,0,0,0,neut
1305,18,15,279,1,2,2,0,inco
1305,18,16,437,1,0,0,0,inco
1305,18,17,355,1,2,2,0,comp
1305,18,18,408,1,2,2,0,comp
1305,18,19,561,1,2,2,0,inco
1305,18,20,517,1,2,2,0,inco
1305,18,21,470,1,2,2,0,inco
1305,18,22,407,1,0,0,0,comp
1305,18,23,359,1,0,0,0,neut
1305,18,24,339,1,0,0,0,inco
1305,18,25,352,1,0,0,0,comp
1305,18,26,445,1,0,0,0,inco
1305,18,27,326,0,0,2,0,neut
1305,18,28,390,1,0,0,0,neut
1305,18,29,420,1,2,2,0,neut
1305,18,30,418,1,2,2,0,comp
1305,18,31,349,1,0,0,0,comp
1305,18,32,512,1,2,2,0,neut
1305,18,33,327,1,2,2,0,comp
1305,18,34,387,1,0,0,0,inco
1305,18,35,441,1,0,0,0,comp
1305,18,36,400,1,2,2,0,inco
1305,18,37,356,1,0,0,0,comp
1305,18,38,349,1,0,0,0,comp
1305,18,39,357,1,2,2,0,comp
1305,18,40,406,1,0,0,0,inco
1305,18,41,369,1,2,2,0,neut
1305,18,42,333,1,0,0,0,inco
1305,18,43,487,1,2,2,0,inco
1305,18,44,376,1,2,2,0,comp
1305,18,45,418,1,0,0,0,neut
1305,18,46,426,1,2,2,0,neut
1305,18,47,392,1,0,0,0,neut
1305,18,48,369,1,2,2,0,neut
1305,18,49,316,1,0,0,0,comp
1305,18,50,421,1,0,0,0,comp
1305,18,51,462,1,2,2,0,neut
1305,18,52,410,1,0,0,0,neut
1305,18,53,497,1,2,2,0,inco
1305,18,54,356,1,0,0,0,comp
1305,18,55,316,1,0,0,0,inco
1305,18,56,416,1,2,2,0,inco
1305,18,57,418,1,0,0,0,neut
1305,18,58,463,1,2,2,0,inco
1305,18,59,604,1,2,2,0,comp
1305,18,60,361,1,2,2,0,neut
1305,18,61,455,1,2,2,0,neut
1305,18,62,315,1,0,0,0,inco
1305,18,63,428,1,2,2,0,inco
1305,18,64,477,1,2,2,0,comp
1305,18,65,395,1,0,0,0,neut
1305,18,66,418,1,2,2,0,neut
1305,18,67,338,1,0,0,0,neut
1305,18,68,336,1,2,2,0,comp
1305,18,69,325,1,0,0,0,comp
1305,18,70,428,1,0,0,0,neut
1305,18,71,348,1,0,0,0,comp
1305,18,72,326,0,2,0,0,inco
1305,20,1,349,1,0,0,1,comp
1305,20,2,319,1,0,0,1,comp
1305,20,3,325,1,0,0,1,neut
1305,20,4,461,1,2,2,1,inco
1305,20,5,315,1,2,2,1,comp
1305,20,6,349,1,2,2,1,neut
1305,20,7,443,1,0,0,1,inco
1305,20,8,308,1,0,0,1,comp
1305,20,9,373,1,0,0,1,inco
1305,20,10,378,1,2,2,1,neut
1305,20,11,315,1,2,2,1,inco
1305,20,12,440,1,2,2,1,neut
1305,20,13,481,1,2,2,1,neut
1305,20,14,460,1,2,2,1,inco
1305,20,15,414,1,2,2,1,inco
1305,20,16,397,1,2,2,1,comp
1305,20,17,307,1,2,2,1,comp
1305,20,18,337,1,2,2,1,comp
1305,20,19,313,1,2,2,1,neut
1305,20,20,371,1,0,0,1,neut
1305,20,21,272,1,0,0,1,comp
1305,20,22,325,1,0,0,1,neut
1305,20,23,298,1,0,0,1,inco
1305,20,24,361,1,2,2,1,comp
1305,20,25,415,1,2,2,1,inco
1305,20,26,410,1,0,0,1,neut
1305,20,27,441,1,2,2,1,comp
1305,20,28,473,1,0,0,1,inco
1305,20,29,373,1,0,0,1,comp
1305,20,30,395,0,2,0,1,inco
1305,20,31,472,1,2,2,1,neut
1305,20,32,375,1,2,2,1,neut
1305,20,33,411,1,0,0,1,neut
1305,20,34,464,0,2,0,1,inco
1305,20,35,590,1,0,0,1,neut
1305,20,36,409,1,0,0,1,comp
1305,20,37,457,1,2,2,1,neut
1305,20,38,434,1,2,2,1,neut
1305,20,39,391,1,2,2,1,comp
1305,20,40,394,1,2,2,1,comp
1305,20,41,372,1,0,0,1,inco
1305,20,42,383,1,0,0,1,comp
1305,20,43,462,1,2,2,1,inco
1305,20,44,393,1,0,0,1,comp
1305,20,45,449,1,2,2,1,neut
1305,20,46,474,1,2,2,1,inco
1305,20,47,328,1,0,0,1,neut
1305,20,48,418,1,2,2,1,inco
1305,20,49,500,1,2,2,1,inco
1305,20,50,410,1,0,0,1,neut
1305,20,51,468,1,2,2,1,inco
1305,20,52,458,1,0,0,1,neut
1305,20,53,413,1,0,0,1,neut
1305,20,54,542,1,0,0,1,inco
1305,20,55,455,1,2,2,1,comp
1305,20,56,387,1,0,0,1,inco
1305,20,57,395,1,0,0,1,neut
1305,20,58,352,1,0,0,1,comp
1305,20,59,364,1,0,0,1,neut
1305,20,60,453,1,2,2,1,neut
1305,20,61,360,1,2,2,1,comp
1305,20,62,392,1,2,2,1,comp
1305,20,63,520,1,0,0,1,inco
1305,20,64,315,1,0,0,1,comp
1305,20,65,359,1,0,0,1,inco
1305,20,66,402,1,0,0,1,inco
1305,20,67,490,1,2,2,1,inco
1305,20,68,453,1,2,2,1,neut
1305,20,69,434,1,0,0,1,comp
1305,20,70,373,1,0,0,1,comp
1305,20,71,448,1,2,2,1,inco
1305,20,72,330,1,2,2,1,comp
1305,22,1,454,1,2,2,0,inco
1305,22,2,342,1,2,2,0,comp
1305,22,3,453,1,2,2,0,inco
1305,22,4,372,1,0,0,0,neut
1305,22,5,362,1,2,2,0,comp
1305,22,6,474,1,2,2,0,inco
1305,22,7,350,1,0,0,0,comp
1305,22,8,330,1,2,2,0,neut
1305,22,9,423,0,2,0,0,inco
1305,22,10,329,1,0,0,0,neut
1305,22,11,438,1,2,2,0,comp
1305,22,12,311,1,0,0,0,comp
1305,22,13,511,1,2,2,0,comp
1305,22,14,345,1,0,0,0,comp
1305,22,15,351,1,2,2,0,comp
1305,22,16,325,1,0,0,0,comp
1305,22,17,472,1,2,2,0,inco
1305,22,18,434,1,0,0,0,neut
1305,22,19,437,1,0,0,0,comp
1305,22,20,443,1,0,0,0,inco
1305,22,21,487,1,2,2,0,inco
1305,22,22,443,1,2,2,0,neut
1305,22,23,400,1,0,0,0,inco
1305,22,24,383,1,2,2,0,neut
1305,22,25,484,1,2,2,0,inco
1305,22,26,343,1,2,2,0,comp
1305,22,27,352,1,2,2,0,neut
1305,22,28,352,1,0,0,0,inco
1305,22,29,487,1,2,2,0,inco
1305,22,30,449,1,2,2,0,comp
1305,22,31,343,1,0,0,0,comp
1305,22,32,368,1,0,0,0,comp
1305,22,33,454,1,2,2,0,comp
1305,22,34,444,1,0,0,0,neut
1305,22,35,450,1,2,2,0,neut
1305,22,36,422,1,2,2,0,neut
1305,22,37,461,1,2,2,0,inco
1305,22,38,474,1,2,2,0,inco
1305,22,39,421,1,2,2,0,neut
1305,22,40,381,1,0,0,0,comp
1305,22,41,419,1,2,2,0,comp
1305,22,42,346,1,0,0,0,inco
1305,22,43,656,1,2,2,0,neut
1305,22,44,409,1,0,0,0,inco
1305,22,45,417,1,2,2,0,inco
1305,22,46,505,1,0,0,0,inco
1305,22,47,417,1,2,2,0,comp
1305,22,48,404,1,0,0,0,neut
1305,22,49,389,1,2,2,0,inco
1305,22,50,364,1,0,0,0,comp
1305,22,51,352,1,0,0,0,neut
1305,22,52,331,1,0,0,0,neut
1305,22,53,344,1,0,0,0,comp
1305,22,54,367,0,0,2,0,neut
1305,22,55,404,1,0,0,0,neut
1305,22,56,390,1,0,0,0,inco
1305,22,57,380,1,0,0,0,neut
1305,22,58,415,1,0,0,0,inco
1305,22,59,359,1,0,0,0,neut
1305,22,60,335,1,2,2,0,comp
1305,22,61,523,1,2,2,0,neut
1305,22,62,520,1,0,0,0,comp
1305,22,63,350,1,0,0,0,comp
1305,22,64,345,1,0,0,0,neut
1305,22,65,606,1,2,2,0,inco
1305,22,66,447,1,0,0,0,inco
1305,22,67,342,1,2,2,0,neut
1305,22,68,435,1,0,0,0,inco
1305,22,69,306,1,2,2,0,comp
1305,22,70,299,1,0,0,0,inco
1305,22,71,327,1,0,0,0,neut
1305,22,72,404,1,2,2,0,neut
1305,24,1,457,1,2,2,1,inco
1305,24,2,466,0,2,0,1,neut
1305,24,3,464,1,2,2,1,comp
1305,24,4,470,1,2,2,1,neut
1305,24,5,400,1,0,0,1,comp
1305,24,6,357,1,0,0,1,neut
1305,24,7,342,1,0,0,1,neut
1305,24,8,383,1,0,0,1,comp
1305,24,9,365,1,0,0,1,neut
1305,24,10,340,1,2,2,1,comp
1305,24,11,444,1,2,2,1,inco
1305,24,12,428,1,0,0,1,comp
1305,24,13,381,1,2,2,1,inco
1305,24,14,318,1,2,2,1,neut
1305,24,15,371,1,2,2,1,neut
1305,24,16,478,1,0,0,1,inco
1305,24,17,312,1,0,0,1,neut
1305,24,18,340,1,0,0,1,neut
1305,24,19,301,1,0,0,1,comp
1305,24,20,446,1,2,2,1,neut
1305,24,21,556,1,0,0,1,neut
1305,24,22,345,1,2,2,1,comp
1305,24,23,466,1,2,2,1,neut
1305,24,24,354,1,0,0,1,inco
1305,24,25,468,1,0,0,1,inco
1305,24,26,356,1,2,2,1,comp
1305,24,27,371,1,0,0,1,neut
1305,24,28,354,1,2,2,1,comp
1305,24,29,323,1,2,2,1,comp
1305,24,30,382,1,2,2,1,neut
1305,24,31,430,0,0,2,1,inco
1305,24,32,427,1,2,2,1,inco
1305,24,33,388,1,2,2,1,neut
1305,24,34,360,1,2,2,1,neut
1305,24,35,413,1,0,0,1,neut
1305,24,36,416,1,2,2,1,comp
1305,24,37,418,1,2,2,1,inco
1305,24,38,459,1,2,2,1,inco
1305,24,39,425,1,0,0,1,inco
1305,24,40,415,1,0,0,1,comp
1305,24,41,327,1,0,0,1,inco
1305,24,42,408,1,2,2,1,comp
1305,24,43,524,1,0,0,1,neut
1305,24,44,507,1,2,2,1,inco
1305,24,45,486,1,2,2,1,inco
1305,24,46,375,1,0,0,1,inco
1305,24,47,353,1,0,0,1,comp
1305,24,48,435,1,2,2,1,inco
1305,24,49,378,1,2,2,1,comp
1305,24,50,329,1,2,2,1,comp
1305,24,51,354,1,0,0,1,inco
1305,24,52,428,1,0,0,1,comp
1305,24,53,381,1,0,0,1,inco
1305,24,54,408,1,0,0,1,inco
1305,24,55,348,1,2,2,1,comp
1305,24,56,403,1,2,2,1,neut
1305,24,57,453,1,0,0,1,inco
1305,24,58,407,1,2,2,1,comp
1305,24,59,497,1,0,0,1,comp
1305,24,60,374,1,0,0,1,comp
1305,24,61,352,1,0,0,1,neut
1305,24,62,451,1,2,2,1,neut
1305,24,63,352,1,0,0,1,comp
1305,24,64,423,1,0,0,1,neut
1305,24,65,408,1,0,0,1,inco
1305,24,66,335,1,2,2,1,neut
1305,24,67,360,1,0,0,1,comp
1305,24,68,419,1,2,2,1,inco
1305,24,69,433,1,0,0,1,inco
1305,24,70,417,1,2,2,1,neut
1305,24,71,422,1,2,2,1,inco
1305,24,72,379,1,0,0,1,comp
1305,26,1,454,1,2,2,0,neut
1305,26,2,444,1,2,2,0,inco
1305,26,3,355,1,0,0,0,comp
1305,26,4,445,1,0,0,0,neut
1305,26,5,428,1,0,0,0,inco
1305,26,6,310,1,0,0,0,comp
1305,26,7,319,1,0,0,0,neut
1305,26,8,375,1,0,0,0,neut
1305,26,9,330,1,0,0,0,neut
1305,26,10,342,1,0,0,0,neut
1305,26,11,544,1,2,2,0,neut
1305,26,12,343,1,0,0,0,comp
1305,26,13,405,1,2,2,0,neut
1305,26,14,490,1,2,2,0,neut
1305,26,15,356,1,2,2,0,neut
1305,26,16,293,1,0,0,0,inco
1305,26,17,329,1,2,2,0,comp
1305,26,18,317,1,2,2,0,comp
1305,26,19,286,1,2,2,0,comp
1305,26,20,634,1,2,2,0,inco
1305,26,21,491,1,2,2,0,inco
1305,26,22,377,1,0,0,0,neut
1305,26,23,352,1,2,2,0,comp
1305,26,24,332,1,0,0,0,neut
1305,26,25,501,1,2,2,0,inco
1305,26,26,451,1,2,2,0,comp
1305,26,27,417,1,0,0,0,neut
1305,26,28,425,1,2,2,0,inco
1305,26,29,345,1,0,0,0,comp
1305,26,30,355,1,2,2,0,comp
1305,26,31,329,0,2,0,0,inco
1305,26,32,339,1,0,0,0,comp
1305,26,33,337,1,0,0,0,comp
1305,26,34,283,1,2,2,0,inco
1305,26,35,552,1,2,2,0,inco
1305,26,36,298,1,2,2,0,comp
1305,26,37,488,1,2,2,0,neut
1305,26,38,345,1,2,2,0,inco
1305,26,39,372,1,2,2,0,comp
1305,26,40,434,1,0,0,0,inco
1305,26,41,447,1,2,2,0,inco
1305,26,42,347,1,0,0,0,comp
1305,26,43,406,1,0,0,0,neut
1305,26,44,363,1,0,0,0,comp
1305,26,45,327,1,0,0,0,comp
1305,26,46,386,1,0,0,0,neut
1305,26,47,336,1,2,2,0,comp
1305,26,48,438,1,2,2,0,comp
1305,26,49,462,1,2,2,0,neut
1305,26,50,393,1,2,2,0,inco
1305,26,51,398,1,2,2,0,inco
1305,26,52,412,0,2,0,0,neut
1305,26,53,505,1,2,2,0,neut
1305,26,54,517,1,2,2,0,neut
1305,26,55,478,1,0,0,0,neut
1305,26,56,493,1,0,0,0,inco
1305,26,57,474,1,2,2,0,comp
1305,26,58,351,1,2,2,0,neut
1305,26,59,322,1,0,0,0,comp
1305,26,60,507,1,2,2,0,comp
1305,26,61,294,1,0,0,0,inco
1305,26,62,425,1,0,0,0,inco
1305,26,63,356,0,0,2,0,neut
1305,26,64,772,1,2,2,0,neut
1305,26,65,492,1,2,2,0,inco
1305,26,66,427,1,0,0,0,comp
1305,26,67,342,1,0,0,0,inco
1305,26,68,349,1,0,0,0,inco
1305,26,69,478,1,0,0,0,inco
1305,26,70,529,1,0,0,0,inco
1305,26,71,464,1,0,0,0,inco
1305,26,72,366,1,0,0,0,comp
1305,28,1,341,1,0,0,1,comp
1305,28,2,444,1,2,2,1,comp
1305,28,3,394,1,0,0,1,inco
1305,28,4,444,1,2,2,1,comp
1305,28,5,409,1,2,2,1,neut
1305,28,6,442,1,2,2,1,inco
1305,28,7,341,1,2,2,1,neut
1305,28,8,461,1,2,2,1,inco
1305,28,9,449,1,0,0,1,neut
1305,28,10,365,1,2,2,1,comp
1305,28,11,413,1,2,2,1,neut
1305,28,12,418,1,0,0,1,comp
1305,28,13,362,1,0,0,1,neut
1305,28,14,360,1,0,0,1,inco
1305,28,15,424,1,2,2,1,neut
1305,28,16,439,1,2,2,1,inco
1305,28,17,464,1,2,2,1,inco
1305,28,18,413,1,2,2,1,neut
1305,28,19,311,1,2,2,1,neut
1305,28,20,481,1,2,2,1,neut
1305,28,21,359,1,0,0,1,neut
1305,28,22,427,1,2,2,1,comp
1305,28,23,415,1,0,0,1,inco
1305,28,24,324,1,2,2,1,comp
1305,28,25,366,1,0,0,1,inco
1305,28,26,370,1,2,2,1,neut
1305,28,27,441,1,0,0,1,inco
1305,28,28,418,1,0,0,1,comp
1305,28,29,400,1,2,2,1,comp
1305,28,30,463,1,2,2,1,inco
1305,28,31,406,1,0,0,1,inco
1305,28,32,389,1,0,0,1,neut
1305,28,33,517,1,2,2,1,inco
1305,28,34,395,1,0,0,1,comp
1305,28,35,407,1,2,2,1,comp
1305,28,36,444,0,0,2,1,neut
1305,28,37,434,1,0,0,1,inco
1305,28,38,341,1,2,2,1,comp
1305,28,39,441,1,2,2,1,comp
1305,28,40,471,1,0,0,1,comp
1305,28,41,356,1,2,2,1,neut
1305,28,42,425,1,2,2,1,inco
1305,28,43,429,1,0,0,1,neut
1305,28,44,468,1,2,2,1,inco
1305,28,45,587,1,2,2,1,neut
1305,28,46,342,1,0,0,1,neut
1305,28,47,348,1,0,0,1,comp
1305,28,48,362,1,0,0,1,neut
1305,28,49,366,1,0,0,1,comp
1305,28,50,342,1,2,2,1,comp
1305,28,51,373,1,2,2,1,comp
1305,28,52,371,1,2,2,1,neut
1305,28,53,426,1,0,0,1,neut
1305,28,54,435,1,2,2,1,comp
1305,28,55,437,1,0,0,1,neut
1305,28,56,382,1,0,0,1,comp
1305,28,57,425,1,2,2,1,inco
1305,28,58,395,1,0,0,1,neut
1305,28,59,376,1,0,0,1,comp
1305,28,60,422,0,2,0,1,inco
1305,28,61,456,1,0,0,1,neut
1305,28,62,386,1,2,2,1,inco
1305,28,63,425,1,0,0,1,inco
1305,28,64,500,1,0,0,1,inco
1305,28,65,487,1,2,2,1,inco
1305,28,66,412,1,0,0,1,comp
1305,28,67,451,1,2,2,1,inco
1305,28,68,380,1,0,0,1,comp
1305,28,69,370,1,0,0,1,inco
1305,28,70,374,1,0,0,1,comp
1305,28,71,359,1,0,0,1,inco
1305,28,72,340,1,0,0,1,neut
1307,6,1,508,1,2,2,0,comp
1307,6,2,364,1,0,0,0,comp
1307,6,3,356,1,2,2,0,neut
1307,6,4,518,1,2,2,0,inco
1307,6,5,391,1,2,2,0,inco
1307,6,6,415,1,2,2,0,neut
1307,6,7,374,1,0,0,0,neut
1307,6,8,396,1,2,2,0,inco
1307,6,9,692,1,0,0,0,comp
1307,6,10,511,1,2,2,0,inco
1307,6,11,336,1,2,2,0,comp
1307,6,12,347,1,2,2,0,comp
1307,6,13,434,1,2,2,0,inco
1307,6,14,465,1,0,0,0,inco
1307,6,15,519,1,0,0,0,inco
1307,6,16,393,1,2,2,0,comp
1307,6,17,470,1,0,0,0,inco
1307,6,18,401,1,0,0,0,inco
1307,6,19,288,1,0,0,0,neut
1307,6,20,352,1,2,2,0,comp
1307,6,21,322,1,2,2,0,comp
1307,6,22,363,1,2,2,0,neut
1307,6,23,400,1,0,0,0,comp
1307,6,24,432,1,0,0,0,neut
1307,6,25,397,1,0,0,0,inco
1307,6,26,372,1,0,0,0,comp
1307,6,27,359,1,0,0,0,neut
1307,6,28,333,1,0,0,0,comp
1307,6,29,391,1,0,0,0,comp
1307,6,30,413,1,2,2,0,neut
1307,6,31,452,1,0,0,0,neut
1307,6,32,359,1,0,0,0,neut
1307,6,33,310,1,0,0,0,comp
1307,6,34,362,1,0,0,0,inco
1307,6,35,442,1,2,2,0,neut
1307,6,36,362,1,0,0,0,comp
1307,6,37,504,1,2,2,0,inco
1307,6,38,558,1,2,2,0,neut
1307,6,39,547,1,2,2,0,inco
1307,6,40,472,1,0,0,0,inco
1307,6,41,494,1,0,0,0,inco
1307,6,42,357,1,0,0,0,neut
1307,6,43,356,1,0,0,0,neut
1307,6,44,425,1,2,2,0,neut
1307,6,45,448,1,2,2,0,comp
1307,6,46,452,1,0,0,0,inco
1307,6,47,480,1,0,0,0,inco
1307,6,48,410,1,2,2,0,neut
1307,6,49,355,1,2,2,0,inco
1307,6,50,365,1,2,2,0,comp
1307,6,51,432,1,0,0,0,comp
1307,6,52,394,1,2,2,0,neut
1307,6,53,419,1,0,0,0,comp
1307,6,54,347,1,0,0,0,neut
1307,6,55,425,1,2,2,0,inco
1307,6,56,400,1,2,2,0,comp
1307,6,57,312,1,2,2,0,comp
1307,6,58,330,1,2,2,0,inco
1307,6,59,345,1,0,0,0,neut
1307,6,60,393,1,2,2,0,comp
1307,6,61,426,1,0,0,0,inco
1307,6,62,360,1,2,2,0,comp
1307,6,63,374,1,0,0,0,comp
1307,6,64,298,1,0,0,0,neut
1307,6,65,304,1,0,0,0,comp
1307,6,66,427,1,2,2,0,neut
1307,6,67,327,0,0,2,0,inco
1307,6,68,525,1,0,0,0,inco
1307,6,69,347,1,2,2,0,neut
1307,6,70,415,1,0,0,0,neut
1307,6,71,369,1,2,2,0,neut
1307,6,72,324,1,2,2,0,inco
1307,8,1,1254,0,0,2,1,comp
1307,8,2,1277,1,2,2,1,neut
1307,8,3,595,1,0,0,1,neut
1307,8,4,378,1,0,0,1,neut
1307,8,5,405,1,2,2,1,inco
1307,8,6,300,1,2,2,1,neut
1307,8,7,425,1,0,0,1,neut
1307,8,8,327,1,2,2,1,comp
1307,8,9,391,1,0,0,1,neut
1307,8,10,362,0,2,0,1,inco
1307,8,11,491,1,2,2,1,inco
1307,8,12,351,1,2,2,1,neut
1307,8,13,341,1,2,2,1,neut
1307,8,14,305,1,2,2,1,comp
1307,8,15,396,1,0,0,1,comp
1307,8,16,345,1,0,0,1,neut
1307,8,17,426,1,2,2,1,inco
1307,8,18,555,1,0,0,1,comp
1307,8,19,421,1,0,0,1,neut
1307,8,20,297,1,0,0,1,comp
1307,8,21,262,1,0,0,1,comp
1307,8,22,327,1,0,0,1,inco
1307,8,23,293,0,2,0,1,inco
1307,8,24,545,1,0,0,1,inco
1307,8,25,275,1,2,2,1,comp
1307,8,26,358,1,0,0,1,neut
1307,8,27,376,1,0,0,1,comp
1307,8,28,443,1,2,2,1,inco
1307,8,29,398,1,0,0,1,inco
1307,8,30,423,1,2,2,1,neut
1307,8,31,348,1,2,2,1,inco
1307,8,32,449,1,2,2,1,neut
1307,8,33,422,1,0,0,1,comp
1307,8,34,469,1,2,2,1,comp
1307,8,35,341,1,2,2,1,neut
1307,8,36,388,1,2,2,1,inco
1307,8,37,362,1,2,2,1,neut
1307,8,38,368,1,2,2,1,comp
1307,8,39,410,1,0,0,1,comp
1307,8,40,559,1,2,2,1,comp
1307,8,41,433,1,2,2,1,inco
1307,8,42,353,1,2,2,1,inco
1307,8,43,460,1,0,0,1,comp
1307,8,44,492,1,2,2,1,comp
1307,8,45,368,1,2,2,1,neut
1307,8,46,534,1,0,0,1,comp
1307,8,47,557,1,0,0,1,inco
1307,8,48,488,1,0,0,1,inco
1307,8,49,493,1,2,2,1,inco
1307,8,50,560,1,0,0,1,inco
1307,8,51,354,1,0,0,1,inco
1307,8,52,384,1,0,0,1,neut
1307,8,53,366,1,0,0,1,neut
1307,8,54,415,1,0,0,1,inco
1307,8,55,432,1,0,0,1,neut
1307,8,56,442,1,2,2,1,neut
1307,8,57,531,1,0,0,1,neut
1307,8,58,391,1,2,2,1,neut
1307,8,59,342,1,2,2,1,neut
1307,8,60,327,1,2,2,1,comp
1307,8,61,387,1,0,0,1,neut
1307,8,62,492,1,2,2,1,comp
1307,8,63,427,1,0,0,1,inco
1307,8,64,407,1,2,2,1,inco
1307,8,65,401,1,2,2,1,comp
1307,8,66,381,1,0,0,1,comp
1307,8,67,345,1,2,2,1,inco
1307,8,68,396,1,0,0,1,comp
1307,8,69,362,1,2,2,1,comp
1307,8,70,421,1,0,0,1,inco
1307,8,71,369,1,0,0,1,comp
1307,8,72,387,1,2,2,1,inco
1307,10,1,772,1,2,2,0,inco
1307,10,2,381,1,0,0,0,neut
1307,10,3,546,1,2,2,0,inco
1307,10,4,347,1,2,2,0,comp
1307,10,5,356,1,0,0,0,neut
1307,10,6,300,1,0,0,0,comp
1307,10,7,358,1,0,0,0,neut
1307,10,8,337,1,2,2,0,comp
1307,10,9,343,1,0,0,0,neut
1307,10,10,287,1,2,2,0,comp
1307,10,11,477,1,0,0,0,neut
1307,10,12,338,1,2,2,0,neut
1307,10,13,353,0,0,2,0,neut
1307,10,14,317,1,0,0,0,neut
1307,10,15,377,0,0,2,0,inco
1307,10,16,713,1,0,0,0,neut
1307,10,17,730,1,0,0,0,neut
1307,10,18,503,1,0,0,0,inco
1307,10,19,438,1,0,0,0,inco
1307,10,20,321,1,0,0,0,comp
1307,10,21,467,1,2,2,0,neut
1307,10,22,322,1,2,2,0,inco
1307,10,23,342,0,2,0,0,comp
1307,10,24,418,1,0,0,0,inco
1307,10,25,488,1,2,2,0,comp
1307,10,26,310,1,0,0,0,inco
1307,10,27,343,1,2,2,0,neut
1307,10,28,367,1,2,2,0,neut
1307,10,29,372,1,0,0,0,comp
1307,10,30,461,1,2,2,0,neut
1307,10,31,401,1,0,0,0,comp
1307,10,32,493,1,0,0,0,inco
1307,10,33,295,1,2,2,0,comp
1307,10,34,324,1,0,0,0,neut
1307,10,35,408,1,2,2,0,neut
1307,10,36,507,1,0,0,0,inco
1307,10,37,686,1,0,0,0,comp
1307,10,38,384,1,0,0,0,inco
1307,10,39,313,1,0,0,0,comp
1307,10,40,352,1,0,0,0,comp
1307,10,41,358,1,0,0,0,inco
1307,10,42,247,1,2,2,0,inco
1307,10,43,330,1,2,2,0,inco
1307,10,44,367,1,0,0,0,inco
1307,10,45,399,1,2,2,0,inco
1307,10,46,383,1,0,0,0,inco
1307,10,47,285,1,2,2,0,comp
1307,10,48,379,1,2,2,0,inco
1307,10,49,387,1,2,2,0,neut
1307,10,50,344,1,2,2,0,neut
1307,10,51,292,0,0,2,0,inco
1307,10,52,413,0,2,0,0,neut
1307,10,53,482,1,2,2,0,inco
1307,10,54,391,1,2,2,0,neut
1307,10,55,373,1,2,2,0,comp
1307,10,56,437,1,0,0,0,neut
1307,10,57,445,1,2,2,0,neut
1307,10,58,454,1,2,2,0,comp
1307,10,59,476,1,0,0,0,comp
1307,10,60,556,1,0,0,0,inco
1307,10,61,348,1,2,2,0,comp
1307,10,62,390,1,0,0,0,comp
1307,10,63,320,1,2,2,0,comp
1307,10,64,382,1,0,0,0,inco
1307,10,65,361,1,2,2,0,comp
1307,10,66,445,1,2,2,0,inco
1307,10,67,431,1,2,2,0,neut
1307,10,68,360,1,0,0,0,comp
1307,10,69,490,1,2,2,0,inco
1307,10,70,443,1,0,0,0,comp
1307,10,71,516,1,0,0,0,neut
1307,10,72,423,1,2,2,0,comp
1307,12,1,601,1,0,0,1,comp
1307,12,2,454,1,2,2,1,neut
1307,12,3,371,1,0,0,1,comp
1307,12,4,359,0,0,2,1,neut
1307,12,5,407,1,0,0,1,neut
1307,12,6,414,1,0,0,1,inco
1307,12,7,295,0,2,0,1,inco
1307,12,8,378,1,0,0,1,comp
1307,12,9,368,1,0,0,1,comp
1307,12,10,431,1,2,2,1,neut
1307,12,11,403,1,0,0,1,comp
1307,12,12,340,1,2,2,1,neut
1307,12,13,418,1,2,2,1,neut
1307,12,14,413,1,0,0,1,comp
1307,12,15,514,1,2,2,1,comp
1307,12,16,485,1,0,0,1,inco
1307,12,17,381,1,2,2,1,comp
1307,12,18,418,1,2,2,1,neut
1307,12,19,459,1,2,2,1,inco
1307,12,20,540,1,2,2,1,comp
1307,12,21,408,1,0,0,1,comp
1307,12,22,459,1,2,2,1,neut
1307,12,23,430,1,0,0,1,neut
1307,12,24,407,1,2,2,1,inco
1307,12,25,335,1,2,2,1,comp
1307,12,26,446,1,2,2,1,inco
1307,12,27,374,1,2,2,1,inco
1307,12,28,391,1,0,0,1,neut
1307,12,29,386,1,0,0,1,neut
1307,12,30,406,1,2,2,1,comp
1307,12,31,307,1,2,2,1,neut
1307,12,32,430,1,0,0,1,inco
1307,12,33,317,1,2,2,1,neut
1307,12,34,350,1,2,2,1,inco
1307,12,35,323,1,2,2,1,inco
1307,12,36,304,1,2,2,1,comp
1307,12,37,415,1,2,2,1,inco
1307,12,38,433,1,0,0,1,neut
1307,12,39,519,1,2,2,1,inco
1307,12,40,372,1,0,0,1,neut
1307,12,41,388,1,0,0,1,inco
1307,12,42,341,1,2,2,1,comp
1307,12,43,354,1,2,2,1,neut
1307,12,44,309,1,2,2,1,comp
1307,12,45,375,1,0,0,1,neut
1307,12,46,375,1,2,2,1,neut
1307,12,47,299,1,2,2,1,comp
1307,12,48,323,1,2,2,1,inco
1307,12,49,406,1,0,0,1,inco
1307,12,50,335,1,2,2,1,neut
1307,12,51,580,1,0,0,1,comp
1307,12,52,492,1,0,0,1,neut
1307,12,53,411,1,0,0,1,comp
1307,12,54,349,1,0,0,1,neut
1307,12,55,334,1,0,0,1,inco
1307,12,56,337,1,0,0,1,neut
1307,12,57,459,1,0,0,1,comp
1307,12,58,345,0,2,0,1,inco
1307,12,59,440,1,2,2,1,comp
1307,12,60,450,1,0,0,1,inco
1307,12,61,406,1,0,0,1,inco
1307,12,62,349,1,2,2,1,comp
1307,12,63,382,1,2,2,1,inco
1307,12,64,349,1,0,0,1,comp
1307,12,65,427,1,2,2,1,inco
1307,12,66,384,1,0,0,1,comp
1307,12,67,355,1,0,0,1,inco
1307,12,68,382,1,2,2,1,comp
1307,12,69,336,0,0,2,1,inco
1307,12,70,411,0,2,0,1,neut
1307,12,71,407,1,0,0,1,neut
1307,12,72,526,1,0,0,1,inco
1307,14,1,762,1,2,2,0,inco
1307,14,2,391,0,0,2,0,neut
1307,14,3,359,1,0,0,0,neut
1307,14,4,418,1,2,2,0,comp
1307,14,5,312,1,2,2,0,inco
1307,14,6,340,1,0,0,0,neut
1307,14,7,435,1,2,2,0,neut
1307,14,8,318,1,2,2,0,inco
1307,14,9,404,1,0,0,0,comp
1307,14,10,444,1,0,0,0,inco
1307,14,11,331,1,2,2,0,comp
1307,14,12,429,1,0,0,0,inco
1307,14,13,438,1,0,0,0,inco
1307,14,14,368,1,2,2,0,neut
1307,14,15,304,1,2,2,0,comp
1307,14,16,339,1,2,2,0,comp
1307,14,17,417,1,0,0,0,neut
1307,14,18,297,1,0,0,0,neut
1307,14,19,386,1,2,2,0,inco
1307,14,20,300,1,2,2,0,inco
1307,14,21,352,1,0,0,0,comp
1307,14,22,398,0,0,2,0,inco
1307,14,23,426,0,0,2,0,comp
1307,14,24,322,1,2,2,0,comp
1307,14,25,422,1,0,0,0,inco
1307,14,26,511,1,0,0,0,inco
1307,14,27,300,1,0,0,0,comp
1307,14,28,316,1,0,0,0,comp
1307,14,29,476,1,2,2,0,inco
1307,14,30,406,1,2,2,0,neut
1307,14,31,446,1,0,0,0,inco
1307,14,32,457,1,2,2,0,inco
1307,14,33,378,1,2,2,0,inco
1307,14,34,407,1,0,0,0,comp
1307,14,35,418,1,2,2,0,neut
1307,14,36,391,0,2,0,0,neut
1307,14,37,401,1,2,2,0,neut
1307,14,38,450,1,2,2,0,neut
1307,14,39,341,1,0,0,0,comp
1307,14,40,363,1,0,0,0,comp
1307,14,41,383,1,2,2,0,inco
1307,14,42,384,1,0,0,0,neut
1307,14,43,501,1,0,0,0,inco
1307,14,44,431,0,2,0,0,neut
1307,14,45,409,1,0,0,0,comp
1307,14,46,423,1,2,2,0,neut
1307,14,47,435,1,0,0,0,inco
1307,14,48,389,1,2,2,0,neut
1307,14,49,518,1,2,2,0,neut
1307,14,50,386,1,2,2,0,comp
1307,14,51,354,1,0,0,0,inco
1307,14,52,350,1,0,0,0,neut
1307,14,53,302,1,2,2,0,comp
1307,14,54,383,1,2,2,0,inco
1307,14,55,338,1,2,2,0,comp
1307,14,56,334,1,2,2,0,neut
1307,14,57,303,1,2,2,0,comp
1307,14,58,408,1,0,0,0,comp
1307,14,59,349,1,0,0,0,neut
1307,14,60,317,1,0,0,0,inco
1307,14,61,375,1,0,0,0,comp
1307,14,62,295,1,0,0,0,comp
1307,14,63,336,0,0,2,0,comp
1307,14,64,376,1,2,2,0,comp
1307,14,65,344,1,2,2,0,neut
1307,14,66,422,1,0,0,0,neut
1307,14,67,409,1,2,2,0,inco
1307,14,68,408,1,0,0,0,comp
1307,14,69,341,1,0,0,0,neut
1307,14,70,308,1,0,0,0,inco
1307,14,71,342,1,0,0,0,neut
1307,14,72,551,1,0,0,0,inco
1307,16,1,546,1,0,0,1,inco
1307,16,2,436,1,2,2,1,neut
1307,16,3,467,1,2,2,1,inco
1307,16,4,322,1,2,2,1,comp
1307,16,5,408,1,0,0,1,inco
1307,16,6,518,1,0,0,1,inco
1307,16,7,462,1,2,2,1,neut
1307,16,8,400,1,0,0,1,comp
1307,16,9,355,1,0,0,1,comp
1307,16,10,413,1,2,2,1,comp
1307,16,11,303,1,2,2,1,neut
1307,16,12,438,1,0,0,1,inco
1307,16,13,322,1,0,0,1,neut
1307,16,14,299,1,0,0,1,comp
1307,16,15,322,1,2,2,1,comp
1307,16,16,392,1,2,2,1,inco
1307,16,17,399,1,0,0,1,inco
1307,16,18,327,1,2,2,1,inco
1307,16,19,301,1,2,2,1,neut
1307,16,20,356,1,2,2,1,comp
1307,16,21,432,1,2,2,1,neut
1307,16,22,413,1,0,0,1,neut
1307,16,23,469,1,0,0,1,comp
1307,16,24,323,1,0,0,1,comp
1307,16,25,322,1,0,0,1,comp
1307,16,26,435,1,0,0,1,comp
1307,16,27,342,0,2,0,1,comp
1307,16,28,378,1,0,0,1,neut
1307,16,29,398,1,2,2,1,inco
1307,16,30,332,1,2,2,1,inco
1307,16,31,462,1,0,0,1,inco
1307,16,32,327,1,0,0,1,neut
1307,16,33,423,1,2,2,1,neut
1307,16,34,377,1,0,0,1,neut
1307,16,35,318,1,2,2,1,inco
1307,16,36,351,1,2,2,1,inco
1307,16,37,334,1,2,2,1,neut
1307,16,38,318,1,2,2,1,comp
1307,16,39,433,1,0,0,1,neut
1307,16,40,376,1,0,0,1,inco
1307,16,41,310,1,2,2,1,neut
1307,16,42,424,1,0,0,1,neut
1307,16,43,311,1,2,2,1,neut
1307,16,44,369,0,0,2,1,comp
1307,16,45,311,1,0,0,1,comp
1307,16,46,343,1,0,0,1,neut
1307,16,47,435,1,2,2,1,inco
1307,16,48,351,1,2,2,1,comp
1307,16,49,346,1,2,2,1,inco
1307,16,50,395,1,0,0,1,neut
1307,16,51,376,1,2,2,1,comp
1307,16,52,464,1,0,0,1,inco
1307,16,53,355,1,2,2,1,comp
1307,16,54,387,1,2,2,1,inco
1307,16,55,414,1,0,0,1,inco
1307,16,56,337,1,2,2,1,neut
1307,16,57,384,1,2,2,1,inco
1307,16,58,357,1,2,2,1,neut
1307,16,59,405,1,0,0,1,neut
1307,16,60,347,1,2,2,1,comp
1307,16,61,511,1,2,2,1,neut
1307,16,62,345,1,2,2,1,inco
1307,16,63,438,1,0,0,1,inco
1307,16,64,437,1,0,0,1,inco
1307,16,65,403,1,0,0,1,neut
1307,16,66,346,1,0,0,1,comp
1307,16,67,337,1,0,0,1,neut
1307,16,68,302,1,2,2,1,comp
1307,16,69,440,1,0,0,1,comp
1307,16,70,560,1,0,0,1,inco
1307,16,71,385,1,0,0,1,comp
1307,16,72,334,0,0,2,1,comp
1307,18,1,524,1,2,2,0,inco
1307,18,2,477,1,2,2,0,inco
1307,18,3,346,1,0,0,0,comp
1307,18,4,327,1,2,2,0,comp
1307,18,5,314,1,2,2,0,comp
1307,18,6,401,1,0,0,0,comp
1307,18,7,340,1,2,2,0,inco
1307,18,8,346,1,2,2,0,neut
1307,18,9,285,1,2,2,0,comp
1307,18,10,302,1,2,2,0,neut
1307,18,11,343,1,2,2,0,inco
1307,18,12,304,1,2,2,0,comp
1307,18,13,288,1,2,2,0,comp
1307,18,14,337,1,0,0,0,comp
1307,18,15,464,1,0,0,0,inco
1307,18,16,457,1,2,2,0,neut
1307,18,17,568,1,0,0,0,inco
1307,18,18,302,1,0,0,0,neut
1307,18,19,340,0,0,2,0,neut
1307,18,20,488,1,0,0,0,inco
1307,18,21,285,1,2,2,0,inco
1307,18,22,403,1,2,2,0,neut
1307,18,23,298,1,2,2,0,inco
1307,18,24,429,1,0,0,0,comp
1307,18,25,319,1,0,0,0,inco
1307,18,26,324,1,0,0,0,comp
1307,18,27,312,0,2,0,0,inco
1307,18,28,422,1,2,2,0,neut
1307,18,29,439,1,0,0,0,inco
1307,18,30,458,1,0,0,0,inco
1307,18,31,439,1,2,2,0,inco
1307,18,32,320,1,2,2,0,comp
1307,18,33,366,1,0,0,0,neut
1307,18,34,381,1,0,0,0,neut
1307,18,35,364,1,0,0,0,neut
1307,18,36,314,1,0,0,0,comp
1307,18,37,288,1,0,0,0,comp
1307,18,38,371,1,2,2,0,neut
1307,18,39,429,1,0,0,0,neut
1307,18,40,391,1,0,0,0,inco
1307,18,41,456,1,2,2,0,inco
1307,18,42,458,1,0,0,0,inco
1307,18,43,361,1,0,0,0,comp
1307,18,44,357,1,2,2,0,comp
1307,18,45,320,1,2,2,0,inco
1307,18,46,361,1,0,0,0,neut
1307,18,47,401,1,2,2,0,inco
1307,18,48,473,1,0,0,0,neut
1307,18,49,414,1,2,2,0,neut
1307,18,50,314,1,2,2,0,comp
1307,18,51,429,1,0,0,0,comp
1307,18,52,339,1,0,0,0,comp
1307,18,53,344,1,2,2,0,neut
1307,18,54,386,1,0,0,0,inco
1307,18,55,320,1,2,2,0,comp
1307,18,56,329,1,0,0,0,neut
1307,18,57,333,1,2,2,0,comp
1307,18,58,374,1,0,0,0,inco
1307,18,59,306,1,0,0,0,neut
1307,18,60,314,0,2,0,0,inco
1307,18,61,428,1,0,0,0,neut
1307,18,62,316,1,0,0,0,comp
1307,18,63,337,1,0,0,0,neut
1307,18,64,469,1,2,2,0,comp
1307,18,65,355,1,2,2,0,inco
1307,18,66,343,1,2,2,0,neut
1307,18,67,560,1,0,0,0,comp
1307,18,68,432,1,2,2,0,neut
1307,18,69,290,1,2,2,0,comp
1307,18,70,347,0,0,2,0,inco
1307,18,71,364,1,2,2,0,neut
1307,18,72,429,1,0,0,0,neut
1307,20,1,886,1,2,2,1,neut
1307,20,2,366,1,2,2,1,neut
1307,20,3,370,1,2,2,1,comp
1307,20,4,309,1,2,2,1,comp
1307,20,5,294,0,2,0,1,inco
1307,20,6,364,1,2,2,1,comp
1307,20,7,444,1,2,2,1,inco
1307,20,8,368,1,2,2,1,neut
1307,20,9,384,1,0,0,1,comp
1307,20,10,361,1,0,0,1,inco
1307,20,11,375,1,2,2,1,comp
1307,20,12,438,1,0,0,1,inco
1307,20,13,363,1,2,2,1,inco
1307,20,14,321,1,2,2,1,neut
1307,20,15,406,1,0,0,1,neut
1307,20,16,417,1,2,2,1,inco
1307,20,17,363,1,2,2,1,neut
1307,20,18,398,1,0,0,1,inco
1307,20,19,364,1,2,2,1,neut
1307,20,20,415,1,0,0,1,comp
1307,20,21,386,1,0,0,1,comp
1307,20,22,405,1,0,0,1,comp
1307,20,23,384,1,0,0,1,inco
1307,20,24,418,1,2,2,1,neut
1307,20,25,313,1,2,2,1,comp
1307,20,26,310,1,2,2,1,neut
1307,20,27,407,1,2,2,1,inco
1307,20,28,332,1,2,2,1,inco
1307,20,29,398,1,0,0,1,neut
1307,20,30,506,1,2,2,1,comp
1307,20,31,307,1,2,2,1,comp
1307,20,32,364,1,2,2,1,neut
1307,20,33,430,1,0,0,1,inco
1307,20,34,380,1,0,0,1,neut
1307,20,35,360,1,2,2,1,inco
1307,20,36,486,1,0,0,1,neut
1307,20,37,330,1,2,2,1,inco
1307,20,38,395,1,2,2,1,comp
1307,20,39,550,1,0,0,1,neut
1307,20,40,568,1,0,0,1,inco
1307,20,41,342,1,2,2,1,neut
1307,20,42,406,1,0,0,1,comp
1307,20,43,339,1,2,2,1,comp
1307,20,44,519,1,2,2,1,inco
1307,20,45,410,1,0,0,1,neut
1307,20,46,338,1,0,0,1,inco
1307,20,47,368,1,2,2,1,comp
1307,20,48,407,1,0,0,1,comp
1307,20,49,365,1,0,0,1,comp
1307,20,50,447,1,0,0,1,neut
1307,20,51,397,1,2,2,1,neut
1307,20,52,421,1,0,0,1,inco
1307,20,53,378,1,0,0,1,neut
1307,20,54,384,1,2,2,1,neut
1307,20,55,419,1,0,0,1,comp
1307,20,56,384,0,2,0,1,inco
1307,20,57,428,1,0,0,1,neut
1307,20,58,546,1,2,2,1,comp
1307,20,59,485,1,0,0,1,neut
1307,20,60,375,1,0,0,1,comp
1307,20,61,344,1,2,2,1,comp
1307,20,62,371,1,0,0,1,comp
1307,20,63,370,0,0,2,1,inco
1307,20,64,423,1,0,0,1,comp
1307,20,65,332,1,0,0,1,comp
1307,20,66,400,1,0,0,1,neut
1307,20,67,367,1,0,0,1,neut
1307,20,68,312,0,2,0,1,inco
1307,20,69,339,1,2,2,1,inco
1307,20,70,321,1,2,2,1,inco
1307,20,71,321,1,2,2,1,inco
1307,20,72,467,1,0,0,1,inco
1307,22,1,361,1,2,2,0,comp
1307,22,2,361,1,2,2,0,neut
1307,22,3,285,1,2,2,0,comp
1307,22,4,389,1,2,2,0,inco
1307,22,5,322,1,2,2,0,comp
1307,22,6,332,1,2,2,0,neut
1307,22,7,352,0,0,2,0,inco
1307,22,8,509,1,0,0,0,neut
1307,22,9,349,1,0,0,0,neut
1307,22,10,298,1,0,0,0,neut
1307,22,11,354,1,2,2,0,inco
1307,22,12,263,0,2,0,0,inco
1307,22,13,393,1,0,0,0,neut
1307,22,14,378,1,0,0,0,inco
1307,22,15,353,1,0,0,0,neut
1307,22,16,466,1,2,2,0,neut
1307,22,17,380,1,0,0,0,comp
1307,22,18,384,1,2,2,0,inco
1307,22,19,573,1,2,2,0,inco
1307,22,20,311,1,2,2,0,inco
1307,22,21,497,1,0,0,0,neut
1307,22,22,389,1,2,2,0,comp
1307,22,23,307,1,2,2,0,neut
1307,22,24,479,1,0,0,0,inco
1307,22,25,393,1,2,2,0,inco
1307,22,26,411,1,2,2,0,inco
1307,22,27,506,1,0,0,0,comp
1307,22,28,368,1,0,0,0,inco
1307,22,29,358,1,0,0,0,comp
1307,22,30,426,1,2,2,0,inco
1307,22,31,412,1,2,2,0,neut
1307,22,32,507,1,2,2,0,neut
1307,22,33,298,1,2,2,0,comp
1307,22,34,464,1,0,0,0,inco
1307,22,35,418,1,2,2,0,comp
1307,22,36,311,1,2,2,0,neut
1307,22,37,420,1,0,0,0,comp
1307,22,38,344,1,0,0,0,comp
1307,22,39,371,1,0,0,0,inco
1307,22,40,450,1,2,2,0,inco
1307,22,41,372,1,2,2,0,neut
1307,22,42,311,1,2,2,0,neut
1307,22,43,315,1,2,2,0,comp
1307,22,44,371,1,0,0,0,comp
1307,22,45,446,1,0,0,0,inco
1307,22,46,418,1,2,2,0,comp
1307,22,47,395,1,0,0,0,neut
1307,22,48,374,1,2,2,0,comp
1307,22,49,457,1,0,0,0,comp
1307,22,50,346,1,0,0,0,inco
1307,22,51,336,1,2,2,0,comp
1307,22,52,497,1,0,0,0,comp
1307,22,53,405,1,0,0,0,neut
1307,22,54,363,1,0,0,0,comp
1307,22,55,343,1,0,0,0,neut
1307,22,56,360,1,0,0,0,comp
1307,22,57,345,1,0,0,0,comp
1307,22,58,340,0,0,2,0,inco
1307,22,59,514,0,0,2,0,neut
1307,22,60,399,1,2,2,0,inco
1307,22,61,339,1,2,2,0,neut
1307,22,62,352,0,2,0,0,neut
1307,22,63,408,1,2,2,0,comp
1307,22,64,530,1,0,0,0,neut
1307,22,65,508,0,2,0,0,inco
1307,22,66,442,1,0,0,0,neut
1307,22,67,504,1,2,2,0,comp
1307,22,68,405,1,0,0,0,comp
1307,22,69,408,1,2,2,0,neut
1307,22,70,410,1,0,0,0,inco
1307,22,71,390,1,0,0,0,inco
1307,22,72,353,1,0,0,0,inco
1307,24,1,441,1,0,0,1,comp
1307,24,2,381,1,0,0,1,neut
1307,24,3,331,1,0,0,1,neut
1307,24,4,359,0,0,2,1,inco
1307,24,5,419,1,0,0,1,comp
1307,24,6,399,1,0,0,1,inco
1307,24,7,364,1,0,0,1,neut
1307,24,8,354,1,0,0,1,neut
1307,24,9,337,0,2,0,1,inco
1307,24,10,397,1,2,2,1,inco
1307,24,11,499,1,0,0,1,comp
1307,24,12,385,1,0,0,1,inco
1307,24,13,376,1,0,0,1,comp
1307,24,14,322,1,2,2,1,comp
1307,24,15,305,1,2,2,1,comp
1307,24,16,312,1,2,2,1,comp
1307,24,17,425,1,2,2,1,inco
1307,24,18,418,1,0,0,1,comp
1307,24,19,368,1,0,0,1,inco
1307,24,20,506,1,2,2,1,inco
1307,24,21,408,1,0,0,1,inco
1307,24,22,354,1,2,2,1,comp
1307,24,23,409,1,0,0,1,inco
1307,24,24,419,1,2,2,1,inco
1307,24,25,424,1,2,2,1,comp
1307,24,26,331,1,2,2,1,neut
1307,24,27,368,1,0,0,1,comp
1307,24,28,427,1,2,2,1,neut
1307,24,29,394,1,0,0,1,comp
1307,24,30,457,0,0,2,1,inco
1307,24,31,379,1,0,0,1,neut
1307,24,32,431,1,2,2,1,neut
1307,24,33,435,1,0,0,1,inco
1307,24,34,416,1,0,0,1,inco
1307,24,35,369,1,0,0,1,inco
1307,24,36,409,1,2,2,1,neut
1307,24,37,342,1,2,2,1,comp
1307,24,38,371,1,2,2,1,comp
1307,24,39,464,1,2,2,1,neut
1307,24,40,367,1,0,0,1,comp
1307,24,41,432,1,2,2,1,inco
1307,24,42,434,1,0,0,1,neut
1307,24,43,325,1,2,2,1,neut
1307,24,44,324,1,2,2,1,neut
1307,24,45,332,1,2,2,1,neut
1307,24,46,336,1,2,2,1,comp
1307,24,47,403,1,0,0,1,comp
1307,24,48,366,1,0,0,1,neut
1307,24,49,426,1,2,2,1,comp
1307,24,50,364,1,2,2,1,inco
1307,24,51,411,0,0,2,1,inco
1307,24,52,412,0,2,0,1,inco
1307,24,53,421,1,0,0,1,neut
1307,24,54,438,1,2,2,1,comp
1307,24,55,411,1,0,0,1,inco
1307,24,56,390,1,0,0,1,neut
1307,24,57,362,1,2,2,1,inco
1307,24,58,290,1,2,2,1,neut
1307,24,59,435,1,0,0,1,neut
1307,24,60,334,1,0,0,1,comp
1307,24,61,409,1,2,2,1,inco
1307,24,62,402,1,0,0,1,comp
1307,24,63,337,1,2,2,1,neut
1307,24,64,336,1,0,0,1,neut
1307,24,65,347,1,2,2,1,neut
1307,24,66,311,1,2,2,1,neut
1307,24,67,431,1,0,0,1,inco
1307,24,68,336,1,2,2,1,comp
1307,24,69,412,1,0,0,1,neut
1307,24,70,353,1,2,2,1,comp
1307,24,71,502,1,0,0,1,comp
1307,24,72,511,1,2,2,1,inco
1307,26,1,469,1,2,2,0,inco
1307,26,2,406,1,2,2,0,inco
1307,26,3,370,1,2,2,0,neut
1307,26,4,398,1,0,0,0,comp
1307,26,5,336,1,2,2,0,neut
1307,26,6,317,1,2,2,0,comp
1307,26,7,337,1,0,0,0,comp
1307,26,8,428,1,2,2,0,inco
1307,26,9,354,1,0,0,0,comp
1307,26,10,368,0,0,2,0,neut
1307,26,11,363,1,2,2,0,comp
1307,26,12,364,0,0,2,0,neut
1307,26,13,520,1,0,0,0,inco
1307,26,14,318,1,2,2,0,neut
1307,26,15,298,1,2,2,0,comp
1307,26,16,304,1,2,2,0,neut
1307,26,17,348,1,0,0,0,neut
1307,26,18,442,1,2,2,0,inco
1307,26,19,414,1,0,0,0,comp
1307,26,20,398,1,2,2,0,inco
1307,26,21,412,1,0,0,0,neut
1307,26,22,423,1,2,2,0,inco
1307,26,23,320,1,0,0,0,inco
1307,26,24,372,1,2,2,0,neut
1307,26,25,369,1,0,0,0,inco
1307,26,26,354,1,0,0,0,comp
1307,26,27,310,1,2,2,0,comp
1307,26,28,345,1,0,0,0,comp
1307,26,29,402,1,0,0,0,neut
1307,26,30,414,1,2,2,0,neut
1307,26,31,334,1,2,2,0,inco
1307,26,32,318,1,2,2,0,comp
1307,26,33,372,1,0,0,0,comp
1307,26,34,350,1,2,2,0,comp
1307,26,35,411,1,0,0,0,inco
1307,26,36,415,1,0,0,0,inco
1307,26,37,337,1,0,0,0,neut
1307,26,38,378,1,0,0,0,inco
1307,26,39,389,1,0,0,0,neut
1307,26,40,390,1,2,2,0,comp
1307,26,41,317,0,2,0,0,inco
1307,26,42,444,1,0,0,0,neut
1307,26,43,356,1,0,0,0,neut
1307,26,44,347,1,2,2,0,neut
1307,26,45,410,1,0,0,0,inco
1307,26,46,438,1,2,2,0,inco
1307,26,47,315,1,2,2,0,comp
1307,26,48,420,1,0,0,0,comp
1307,26,49,321,1,0,0,0,comp
1307,26,50,319,1,0,0,0,comp
1307,26,51,355,1,2,2,0,neut
1307,26,52,322,1,2,2,0,comp
1307,26,53,324,1,0,0,0,neut
1307,26,54,359,1,2,2,0,neut
1307,26,55,386,1,0,0,0,inco
1307,26,56,391,1,0,0,0,comp
1307,26,57,415,1,0,0,0,inco
1307,26,58,342,1,0,0,0,neut
1307,26,59,339,1,0,0,0,comp
1307,26,60,357,0,0,2,0,inco
1307,26,61,334,1,2,2,0,neut
1307,26,62,479,1,2,2,0,inco
1307,26,63,305,1,2,2,0,comp
1307,26,64,360,1,0,0,0,neut
1307,26,65,387,1,0,0,0,neut
1307,26,66,424,1,0,0,0,inco
1307,26,67,416,1,2,2,0,inco
1307,26,68,380,1,0,0,0,neut
1307,26,69,363,1,0,0,0,inco
1307,26,70,386,1,2,2,0,comp
1307,26,71,379,1,2,2,0,inco
1307,26,72,252,1,2,2,0,comp
1307,28,1,467,1,0,0,1,inco
1307,28,2,339,1,2,2,1,comp
1307,28,3,320,1,2,2,1,comp
1307,28,4,343,0,0,2,1,inco
1307,28,5,421,1,0,0,1,inco
1307,28,6,597,1,0,0,1,inco
1307,28,7,484,1,0,0,1,inco
1307,28,8,314,1,0,0,1,inco
1307,28,9,326,1,0,0,1,inco
1307,28,10,431,1,2,2,1,comp
1307,28,11,293,0,2,0,1,neut
1307,28,12,390,1,0,0,1,neut
1307,28,13,320,1,0,0,1,neut
1307,28,14,339,1,0,0,1,comp
1307,28,15,368,0,0,2,1,neut
1307,28,16,449,1,0,0,1,neut
1307,28,17,414,1,2,2,1,inco
1307,28,18,319,1,2,2,1,neut
1307,28,19,445,1,0,0,1,neut
1307,28,20,383,1,0,0,1,neut
1307,28,21,332,1,2,2,1,inco
1307,28,22,522,1,0,0,1,inco
1307,28,23,390,1,2,2,1,inco
1307,28,24,383,1,2,2,1,inco
1307,28,25,339,1,2,2,1,inco
1307,28,26,444,1,2,2,1,inco
1307,28,27,320,1,2,2,1,comp
1307,28,28,356,1,2,2,1,inco
1307,28,29,469,1,2,2,1,neut
1307,28,30,439,1,0,0,1,neut
1307,28,31,471,1,2,2,1,comp
1307,28,32,586,1,0,0,1,comp
1307,28,33,379,1,0,0,1,comp
1307,28,34,361,1,0,0,1,inco
1307,28,35,437,1,2,2,1,comp
1307,28,36,299,1,2,2,1,inco
1307,28,37,485,1,0,0,1,comp
1307,28,38,365,1,0,0,1,comp
1307,28,39,409,1,0,0,1,comp
1307,28,40,381,1,0,0,1,comp
1307,28,41,385,1,0,0,1,inco
1307,28,42,364,1,2,2,1,comp
1307,28,43,521,1,2,2,1,neut
1307,28,44,390,1,0,0,1,neut
1307,28,45,381,1,2,2,1,comp
1307,28,46,493,1,0,0,1,inco
1307,28,47,341,1,0,0,1,comp
1307,28,48,436,1,0,0,1,neut
1307,28,49,341,1,0,0,1,inco
1307,28,50,413,1,2,2,1,neut
1307,28,51,411,1,0,0,1,neut
1307,28,52,438,1,2,2,1,comp
1307,28,53,457,1,0,0,1,neut
1307,28,54,416,1,0,0,1,inco
1307,28,55,415,1,2,2,1,inco
1307,28,56,344,1,2,2,1,inco
1307,28,57,420,1,0,0,1,comp
1307,28,58,369,1,2,2,1,neut
1307,28,59,340,1,2,2,1,inco
1307,28,60,307,1,2,2,1,neut
1307,28,61,418,1,2,2,1,neut
1307,28,62,342,1,2,2,1,neut
1307,28,63,424,1,0,0,1,neut
1307,28,64,359,1,2,2,1,comp
1307,28,65,362,1,2,2,1,comp
1307,28,66,443,1,0,0,1,comp
1307,28,67,339,0,0,2,1,neut
1307,28,68,482,1,2,2,1,neut
1307,28,69,439,1,0,0,1,comp
1307,28,70,347,1,2,2,1,neut
1307,28,71,398,1,0,0,1,comp
1307,28,72,396,1,2,2,1,comp
1309,6,1,637,1,0,0,0,neut
1309,6,2,494,1,2,2,0,inco
1309,6,3,776,1,2,2,0,comp
1309,6,4,396,1,2,2,0,inco
1309,6,5,1225,1,0,0,0,inco
1309,6,6,520,1,2,2,0,neut
1309,6,7,638,1,2,2,0,comp
1309,6,8,462,1,2,2,0,neut
1309,6,9,732,1,0,0,0,inco
1309,6,10,1241,1,0,0,0,comp
1309,6,11,498,1,0,0,0,neut
1309,6,12,548,1,0,0,0,comp
1309,6,13,389,1,2,2,0,comp
1309,6,14,809,1,2,2,0,inco
1309,6,15,483,1,0,0,0,comp
1309,6,16,493,1,2,2,0,comp
1309,6,17,680,0,0,2,0,inco
1309,6,18,602,0,2,0,0,neut
1309,6,19,1029,1,0,0,0,neut
1309,6,20,1143,1,2,2,0,inco
1309,6,21,681,1,0,0,0,inco
1309,6,22,672,1,2,2,0,neut
1309,6,23,624,1,2,2,0,inco
1309,6,24,517,1,2,2,0,neut
1309,6,25,427,1,2,2,0,inco
